timestamp,delta_ms,acc_x,acc_y,acc_z,com,gps_accuracy,gps_alt,gps_heading,gps_lat,gps_lon,gps_speed,gyro_x,gyro_y,gyro_z,mag_x,mag_y,mag_z,bar,step_total,step_session,pedometer_status,wifi_name_list,wifi_sig_strength,img_front,img_back
2026-06-18 23:43:09.875,,0.045041,0.152930,9.775376,334.400311,,,,,,,0.000033,0.000033,-0.000167,8.759600,22.081999,6.368400,972.344299,15,0,stopped,,,,
2026-06-18 23:43:09.925,50,0.045031,0.152949,9.775367,334.402316,,,,,,,0.000087,-0.000051,-0.000118,8.759499,22.079590,6.365521,972.344243,15,0,stopped,,,,
2026-06-18 23:43:09.975,50,0.045021,0.152967,9.775357,334.403377,,,,,,,0.000144,-0.000140,-0.000068,8.759398,22.077177,6.362635,972.344188,15,0,stopped,,,,
2026-06-18 23:43:10.025,50,0.045010,0.152986,9.775348,334.404787,,,,,,,0.000180,-0.000195,-0.000036,8.759297,22.074758,6.359743,972.344132,15,0,stopped,,,,
2026-06-18 23:43:10.075,50,0.045000,0.153004,9.775338,334.406734,,,,,,,0.000181,-0.000156,-0.000061,8.759195,22.072333,6.356844,972.344076,15,0,stopped,,,,
2026-06-18 23:43:10.125,50,0.044990,0.153023,9.775329,334.407440,,,,,,,0.000175,0.000006,-0.000164,8.759093,22.069904,6.353940,972.344020,15,0,stopped,,,,
2026-06-18 23:43:10.175,50,0.044979,0.153042,9.775320,334.407398,,,,,,,0.000169,0.000150,-0.000255,8.758991,22.067469,6.351029,972.343963,15,0,stopped,,,,
2026-06-18 23:43:10.225,50,0.044969,0.153060,9.775310,334.409038,,,,,,,0.000160,0.000143,-0.000265,8.758889,22.065029,6.348112,972.343907,15,0,stopped,,,,
2026-06-18 23:43:10.275,50,0.044959,0.153079,9.775301,334.411103,,,,,,,0.000133,0.000037,-0.000258,8.758787,22.062584,6.345188,972.343851,15,0,stopped,,,,
2026-06-18 23:43:10.325,50,0.044948,0.153098,9.775291,334.412837,,,,,,,0.000107,-0.000072,-0.000252,8.758684,22.060133,6.342259,972.343794,15,0,stopped,,,,
2026-06-18 23:43:10.375,50,0.044938,0.153117,9.775282,334.414614,,,,,,,0.000107,-0.000101,-0.000254,8.758581,22.057678,6.339323,972.343737,15,0,stopped,,,,
2026-06-18 23:43:10.425,50,0.044927,0.153136,9.775272,334.416907,,,,,,,0.000176,-0.000106,-0.000297,8.758478,22.055217,6.336382,972.343680,15,0,stopped,,,,
2026-06-18 23:43:10.475,50,0.044917,0.153155,9.775263,334.418722,,,,,,,0.000268,-0.000113,-0.000354,8.758375,22.052752,6.333434,972.343624,15,0,stopped,,,,
2026-06-18 23:43:10.525,50,0.044906,0.153174,9.775253,334.422176,,,,,,,0.000316,-0.000117,-0.000383,8.758271,22.050281,6.330480,972.343566,15,0,stopped,,,,
2026-06-18 23:43:10.575,50,0.044896,0.153193,9.775243,334.423719,,,,,,,0.000252,-0.000159,-0.000379,8.758167,22.047805,6.327520,972.343509,15,0,stopped,,,,
2026-06-18 23:43:10.625,50,0.044885,0.153212,9.775234,334.424918,,,,,,,0.000114,-0.000238,-0.000371,8.758063,22.045324,6.324554,972.343452,15,0,stopped,,,,
2026-06-18 23:43:10.675,50,0.044875,0.153231,9.775224,334.426061,,,,,,,0.000002,-0.000283,-0.000366,8.757959,22.042838,6.321582,972.343395,15,0,stopped,,,,
2026-06-18 23:43:10.725,50,0.044864,0.153250,9.775214,334.427414,,,,,,,-0.000329,-0.000106,-0.001475,8.757855,22.040347,6.318604,972.343337,15,0,stopped,,,,
2026-06-18 23:43:10.775,50,0.044853,0.153269,9.775205,334.429772,,,,,,,-0.000938,0.000261,-0.003782,8.757750,22.037851,6.315620,972.343279,15,0,stopped,,,,
2026-06-18 23:43:10.825,50,0.044843,0.153288,9.775195,334.432217,,,,,,,-0.001391,0.000541,-0.005537,8.757646,22.035350,6.312630,972.343222,15,0,stopped,,,,
2026-06-18 23:43:10.875,50,0.044832,0.153308,9.775185,334.438506,,,,,,,-0.001295,0.000513,-0.005291,8.757540,22.032844,6.309634,972.343164,15,0,stopped,,,,
2026-06-18 23:43:10.925,50,0.044821,0.153327,9.775175,334.451871,,,,,,,-0.000763,0.000309,-0.003711,8.757435,22.030333,6.306632,972.343106,15,0,stopped,,,,
2026-06-18 23:43:10.975,50,0.044811,0.153346,9.775166,334.469609,,,,,,,-0.000233,0.000104,-0.002107,8.757330,22.027817,6.303624,972.343048,15,0,stopped,,,,
2026-06-18 23:43:11.025,50,0.044800,0.153366,9.775156,334.479306,,,,,,,-0.000085,0.000041,-0.001570,8.757224,22.025297,6.300611,972.342989,15,0,stopped,,,,
2026-06-18 23:43:11.075,50,0.044789,0.153385,9.775146,334.477671,,,,,,,-0.000024,-0.000001,-0.001158,8.757118,22.022771,6.297591,972.342931,15,0,stopped,,,,
2026-06-18 23:43:11.125,50,0.044779,0.153405,9.775136,334.484851,,,,,,,0.000034,-0.000048,-0.000710,8.757012,22.020241,6.294566,972.342873,15,0,stopped,,,,
2026-06-18 23:43:11.175,50,0.044768,0.153424,9.775126,334.487649,,,,,,,0.000044,-0.000074,-0.000455,8.756906,22.017705,6.291535,972.342814,15,0,stopped,,,,
2026-06-18 23:43:11.225,50,0.044757,0.153444,9.775117,334.487665,,,,,,,-0.000024,-0.000108,-0.000249,8.756799,22.015165,6.288498,972.342755,15,0,stopped,,,,
2026-06-18 23:43:11.275,50,0.044746,0.153463,9.775107,334.490612,,,,,,,-0.000116,-0.000147,-0.000068,8.756693,22.012620,6.285455,972.342697,15,0,stopped,,,,
2026-06-18 23:43:11.325,50,0.044735,0.153483,9.775097,334.491577,,,,,,,-0.000167,-0.000167,0.000017,8.756586,22.010070,6.282407,972.342638,15,0,stopped,,,,
2026-06-18 23:43:11.375,50,0.044725,0.153502,9.775087,334.493558,,,,,,,-0.000112,-0.000161,-0.000096,8.756479,22.007515,6.279353,972.342579,15,0,stopped,,,,
2026-06-18 23:43:11.425,50,0.044714,0.153522,9.775077,334.495468,,,,,,,0.000008,-0.000148,-0.000344,8.756371,22.004956,6.276293,972.342520,15,0,stopped,,,,
2026-06-18 23:43:11.475,50,0.044703,0.153542,9.775067,334.494330,,,,,,,0.000095,-0.000135,-0.000523,8.756264,22.002392,6.273227,972.342461,15,0,stopped,,,,
2026-06-18 23:43:11.525,50,0.044692,0.153562,9.775057,334.494767,,,,,,,0.000096,-0.000103,-0.000511,8.756156,21.999823,6.270156,972.342401,15,0,stopped,,,,
2026-06-18 23:43:11.575,50,0.044681,0.153581,9.775047,334.497055,,,,,,,0.000083,-0.000020,-0.000442,8.756048,21.997249,6.267079,972.342342,15,0,stopped,,,,
2026-06-18 23:43:11.625,50,0.044670,0.153601,9.775037,334.498955,,,,,,,0.000069,0.000045,-0.000387,8.755940,21.994671,6.263996,972.342282,15,0,stopped,,,,
2026-06-18 23:43:11.675,50,0.044659,0.153621,9.775027,334.500075,,,,,,,0.000040,0.000045,-0.000402,8.755831,21.992088,6.260908,972.342223,15,0,stopped,,,,
2026-06-18 23:43:11.725,50,0.044648,0.153641,9.775017,334.501206,,,,,,,-0.000049,0.000028,-0.000470,8.755723,21.989500,6.257815,972.342163,15,0,stopped,,,,
2026-06-18 23:43:11.775,50,0.044637,0.153661,9.775007,334.503034,,,,,,,-0.000132,0.000008,-0.000536,8.755614,21.986908,6.254715,972.342103,15,0,stopped,,,,
2026-06-18 23:43:11.825,50,0.044626,0.153681,9.774997,334.503906,,,,,,,-0.000148,-0.000012,-0.000539,8.755505,21.984311,6.251611,972.342043,15,0,stopped,,,,
2026-06-18 23:43:11.875,50,0.044615,0.153701,9.774987,334.504817,,,,,,,-0.000134,-0.000084,-0.000450,8.755396,21.981709,6.248500,972.341983,15,0,stopped,,,,
2026-06-18 23:43:11.925,50,0.044604,0.153721,9.774976,334.506384,,,,,,,-0.000114,-0.000167,-0.000343,8.755287,21.979103,6.245384,972.341923,15,0,stopped,,,,
2026-06-18 23:43:11.975,50,0.044593,0.153741,9.774966,334.508551,,,,,,,-0.000098,-0.000199,-0.000301,8.755177,21.976492,6.242263,972.341862,15,0,stopped,,,,
2026-06-18 23:43:12.025,50,0.044582,0.153761,9.774956,334.510705,,,,,,,-0.000066,-0.000133,-0.000341,8.755067,21.973877,6.239136,972.341802,15,0,stopped,,,,
2026-06-18 23:43:12.075,50,0.044571,0.153781,9.774946,334.511904,,,,,,,-0.000020,-0.000031,-0.000403,8.754957,21.971257,6.236004,972.341741,15,0,stopped,,,,
2026-06-18 23:43:12.125,50,0.044559,0.153802,9.774936,334.514032,,,,,,,0.000019,0.000017,-0.000433,8.754847,21.968632,6.232867,972.341681,15,0,stopped,,,,
2026-06-18 23:43:12.175,50,0.044548,0.153822,9.774926,334.516290,,,,,,,0.000080,0.000005,-0.000423,8.754737,21.966003,6.229724,972.341620,15,0,stopped,,,,
2026-06-18 23:43:12.225,50,0.044537,0.153842,9.774915,334.516736,,,,,,,0.000162,-0.000017,-0.000403,8.754626,21.963370,6.226575,972.341559,15,0,stopped,,,,
2026-06-18 23:43:12.275,50,0.044526,0.153862,9.774905,334.519300,,,,,,,0.000215,-0.000032,-0.000385,8.754515,21.960732,6.223421,972.341498,15,0,stopped,,,,
2026-06-18 23:43:12.325,50,0.044515,0.153883,9.774895,334.521229,,,,,,,0.000206,-0.000029,-0.000322,8.754404,21.958090,6.220262,972.341437,15,0,stopped,,,,
2026-06-18 23:43:12.375,50,0.044503,0.153903,9.774884,334.522584,,,,,,,0.000169,-0.000016,-0.000153,8.754293,21.955443,6.217098,972.341376,15,0,stopped,,,,
2026-06-18 23:43:12.425,50,0.044492,0.153924,9.774874,334.525124,,,,,,,0.000128,-0.000003,-0.000015,8.754182,21.952791,6.213928,972.341315,15,0,stopped,,,,
2026-06-18 23:43:12.475,50,0.044481,0.153944,9.774864,334.525737,,,,,,,0.000089,0.000030,-0.000007,8.754070,21.950136,6.210753,972.341254,15,0,stopped,,,,
2026-06-18 23:43:12.525,50,0.044469,0.153965,9.774853,334.527670,,,,,,,0.000014,0.000146,-0.000034,8.753958,21.947476,6.207573,972.341192,15,0,stopped,,,,
2026-06-18 23:43:12.575,50,0.044458,0.153985,9.774843,334.527986,,,,,,,-0.000053,0.000258,-0.000061,8.753846,21.944811,6.204388,972.341131,15,0,stopped,,,,
2026-06-18 23:43:12.625,50,0.044447,0.154006,9.774833,334.529079,,,,,,,-0.000059,0.000276,-0.000054,8.753734,21.942142,6.201197,972.341069,15,0,stopped,,,,
2026-06-18 23:43:12.675,50,0.044435,0.154026,9.774822,334.530030,,,,,,,0.000009,0.000220,0.000054,8.753622,21.939469,6.198001,972.341007,15,0,stopped,,,,
2026-06-18 23:43:12.725,50,0.044424,0.154047,9.774812,334.531484,,,,,,,0.000094,0.000149,0.000189,8.753509,21.936792,6.194800,972.340946,15,0,stopped,,,,
2026-06-18 23:43:12.775,50,0.044413,0.154068,9.774801,334.531782,,,,,,,0.000133,0.000117,0.000250,8.753397,21.934110,6.191594,972.340884,15,0,stopped,,,,
2026-06-18 23:43:12.825,50,0.044401,0.154088,9.774791,334.531308,,,,,,,0.000092,0.000121,0.000176,8.753284,21.931424,6.188383,972.340822,15,0,stopped,,,,
2026-06-18 23:43:12.875,50,0.044390,0.154109,9.774781,334.531601,,,,,,,0.000020,0.000129,0.000050,8.753170,21.928734,6.185167,972.340759,15,0,stopped,,,,
2026-06-18 23:43:12.925,50,0.044378,0.154130,9.774770,334.531348,,,,,,,-0.000017,0.000133,-0.000017,8.753057,21.926039,6.181945,972.340697,15,0,stopped,,,,
2026-06-18 23:43:12.975,50,0.044367,0.154151,9.774759,334.531975,,,,,,,-0.000006,0.000114,-0.000008,8.752944,21.923340,6.178719,972.340635,15,0,stopped,,,,
2026-06-18 23:43:13.025,50,0.044355,0.154172,9.774749,334.532759,,,,,,,0.000017,0.000077,0.000010,8.752830,21.920637,6.175487,972.340572,15,0,stopped,,,,
2026-06-18 23:43:13.075,50,0.044344,0.154192,9.774738,334.534766,,,,,,,0.000032,0.000051,0.000029,8.752716,21.917930,6.172251,972.340510,15,0,stopped,,,,
2026-06-18 23:43:13.125,50,0.044332,0.154213,9.774728,334.535667,,,,,,,0.000022,0.000079,0.000048,8.752602,21.915219,6.169009,972.340447,15,0,stopped,,,,
2026-06-18 23:43:13.175,50,0.044321,0.154234,9.774717,334.536027,,,,,,,-0.000012,0.000168,0.000075,8.752488,21.912503,6.165763,972.340385,15,0,stopped,,,,
2026-06-18 23:43:13.225,50,0.044309,0.154255,9.774707,334.536252,,,,,,,-0.000044,0.000250,0.000096,8.752373,21.909784,6.162511,972.340322,15,0,stopped,,,,
2026-06-18 23:43:13.275,50,0.044298,0.154276,9.774696,334.537772,,,,,,,-0.000046,0.000258,0.000100,8.752258,21.907060,6.159255,972.340259,15,0,stopped,,,,
2026-06-18 23:43:13.325,50,0.044286,0.154297,9.774685,334.538612,,,,,,,-0.000016,0.000199,0.000100,8.752144,21.904332,6.155994,972.340196,15,0,stopped,,,,
2026-06-18 23:43:13.375,50,0.044275,0.154318,9.774675,334.538387,,,,,,,0.000026,0.000134,0.000100,8.752028,21.901600,6.152727,972.340133,15,0,stopped,,,,
2026-06-18 23:43:13.425,50,0.044263,0.154340,9.774664,334.539181,,,,,,,0.000061,0.000119,0.000101,8.751913,21.898864,6.149456,972.340070,15,0,stopped,,,,
2026-06-18 23:43:13.475,50,0.044251,0.154361,9.774653,334.540466,,,,,,,0.000090,0.000135,0.000107,8.751798,21.896124,6.146180,972.340006,15,0,stopped,,,,
2026-06-18 23:43:13.525,50,0.044240,0.154382,9.774643,334.540797,,,,,,,0.000110,0.000157,0.000114,8.751682,21.893379,6.142900,972.339943,15,0,stopped,,,,
2026-06-18 23:43:13.575,50,0.044228,0.154403,9.774632,334.541659,,,,,,,0.000117,0.000167,0.000117,8.751566,21.890631,6.139614,972.339880,15,0,stopped,,,,
2026-06-18 23:43:13.625,50,0.044216,0.154424,9.774621,334.542689,,,,,,,0.000104,0.000173,0.000108,8.751450,21.887879,6.136324,972.339816,15,0,stopped,,,,
2026-06-18 23:43:13.675,50,0.044205,0.154446,9.774610,334.543899,,,,,,,0.000082,0.000179,0.000093,8.751334,21.885123,6.133029,972.339752,15,0,stopped,,,,
2026-06-18 23:43:13.725,50,0.044193,0.154467,9.774600,334.543586,,,,,,,0.000068,0.000183,0.000083,8.751218,21.882363,6.129729,972.339689,15,0,stopped,,,,
2026-06-18 23:43:13.775,50,0.044181,0.154489,9.774589,334.544134,,,,,,,0.000088,0.000175,0.000107,8.751101,21.879599,6.126424,972.339625,15,0,stopped,,,,
2026-06-18 23:43:13.825,50,0.044169,0.154510,9.774578,334.544446,,,,,,,0.000149,0.000148,0.000176,8.750985,21.876831,6.123115,972.339561,15,0,stopped,,,,
2026-06-18 23:43:13.875,50,0.044158,0.154531,9.774567,334.545048,,,,,,,0.000196,0.000122,0.000230,8.750868,21.874059,6.119801,972.339497,15,0,stopped,,,,
2026-06-18 23:43:13.925,50,0.044146,0.154553,9.774556,334.545081,,,,,,,0.000203,0.000081,0.000220,8.750751,21.871283,6.116482,972.339433,15,0,stopped,,,,
2026-06-18 23:43:13.975,50,0.044134,0.154574,9.774546,334.545125,,,,,,,0.000209,-0.000018,0.000175,8.750633,21.868503,6.113159,972.339369,15,0,stopped,,,,
2026-06-18 23:43:14.025,50,0.044122,0.154596,9.774535,334.544430,,,,,,,0.000215,-0.000103,0.000129,8.750516,21.865719,6.109831,972.339304,15,0,stopped,,,,
2026-06-18 23:43:14.075,50,0.044110,0.154617,9.774524,334.546180,,,,,,,0.000219,-0.000112,0.000106,8.750398,21.862932,6.106498,972.339240,15,0,stopped,,,,
2026-06-18 23:43:14.125,50,0.044098,0.154639,9.774513,334.546554,,,,,,,0.000225,-0.000077,0.000074,8.750280,21.860141,6.103161,972.339175,15,0,stopped,,,,
2026-06-18 23:43:14.175,50,0.044087,0.154661,9.774502,334.547627,,,,,,,0.000231,-0.000026,0.000038,8.750162,21.857345,6.099820,972.339111,15,0,stopped,,,,
2026-06-18 23:43:14.225,50,0.044075,0.154682,9.774491,334.548024,,,,,,,0.000232,0.000022,0.000014,8.750044,21.854547,6.096474,972.339046,15,0,stopped,,,,
2026-06-18 23:43:14.275,50,0.044063,0.154704,9.774480,334.549345,,,,,,,0.000182,0.000067,-0.000087,8.749926,21.851744,6.093123,972.338982,15,0,stopped,,,,
2026-06-18 23:43:14.325,50,0.044051,0.154726,9.774469,334.550673,,,,,,,0.000104,0.000103,-0.000233,8.749807,21.848937,6.089768,972.338917,15,0,stopped,,,,
2026-06-18 23:43:14.375,50,0.044039,0.154748,9.774458,334.550719,,,,,,,0.000067,0.000117,-0.000300,8.749689,21.846127,6.086408,972.338852,15,0,stopped,,,,
2026-06-18 23:43:14.425,50,0.044027,0.154769,9.774447,334.551168,,,,,,,0.000102,0.000026,-0.000244,8.749570,21.843313,6.083044,972.338787,15,0,stopped,,,,
2026-06-18 23:43:14.475,50,0.044015,0.154791,9.774436,334.552214,,,,,,,0.000162,-0.000134,-0.000145,8.749451,21.840496,6.079675,972.338722,15,0,stopped,,,,
2026-06-18 23:43:14.525,50,0.044003,0.154813,9.774425,334.553503,,,,,,,0.000199,-0.000231,-0.000084,8.749331,21.837674,6.076302,972.338657,15,0,stopped,,,,
2026-06-18 23:43:14.575,50,0.043991,0.154835,9.774414,334.554675,,,,,,,0.000191,-0.000185,-0.000080,8.749212,21.834849,6.072925,972.338591,15,0,stopped,,,,
2026-06-18 23:43:14.625,50,0.043979,0.154857,9.774403,334.554418,,,,,,,0.000166,-0.000066,-0.000074,8.749092,21.832021,6.069543,972.338526,15,0,stopped,,,,
2026-06-18 23:43:14.675,50,0.043967,0.154879,9.774392,334.555295,,,,,,,0.000141,0.000035,-0.000068,8.748973,21.829189,6.066157,972.338461,15,0,stopped,,,,
2026-06-18 23:43:14.725,50,0.043955,0.154901,9.774381,334.556109,,,,,,,0.000108,0.000046,-0.000043,8.748853,21.826353,6.062767,972.338395,15,0,stopped,,,,
2026-06-18 23:43:14.775,50,0.043943,0.154923,9.774369,334.556382,,,,,,,0.000004,0.000025,0.000083,8.748733,21.823513,6.059372,972.338330,15,0,stopped,,,,
2026-06-18 23:43:14.825,50,0.043931,0.154945,9.774358,334.556946,,,,,,,-0.000097,0.000004,0.000208,8.748612,21.820670,6.055973,972.338264,15,0,stopped,,,,
2026-06-18 23:43:14.875,50,0.043919,0.154967,9.774347,334.556092,,,,,,,-0.000116,0.000006,0.000225,8.748492,21.817824,6.052570,972.338198,15,0,stopped,,,,
2026-06-18 23:43:14.925,50,0.043907,0.154989,9.774336,334.555897,,,,,,,-0.000106,0.000049,0.000166,8.748371,21.814973,6.049163,972.338132,15,0,stopped,,,,
2026-06-18 23:43:14.975,50,0.043894,0.155011,9.774325,334.555404,,,,,,,-0.000092,0.000099,0.000080,8.748250,21.812120,6.045751,972.338066,15,0,stopped,,,,
2026-06-18 23:43:15.025,50,0.043882,0.155033,9.774314,334.555602,,,,,,,-0.000081,0.000117,0.000005,8.748129,21.809262,6.042335,972.338000,15,0,stopped,,,,
2026-06-18 23:43:15.075,50,0.043870,0.155056,9.774302,334.556325,,,,,,,-0.000066,0.000112,-0.000083,8.748008,21.806402,6.038915,972.337934,15,0,stopped,,,,
2026-06-18 23:43:15.125,50,0.043858,0.155078,9.774291,334.555680,,,,,,,-0.000048,0.000104,-0.000173,8.747887,21.803537,6.035491,972.337868,15,0,stopped,,,,
2026-06-18 23:43:15.175,50,0.043846,0.155100,9.774280,334.556242,,,,,,,-0.000033,0.000100,-0.000217,8.747765,21.800670,6.032062,972.337802,15,0,stopped,,,,
2026-06-18 23:43:15.225,50,0.043834,0.155123,9.774269,334.556458,,,,,,,0.000025,0.000114,-0.000156,8.747644,21.797799,6.028630,972.337736,15,0,stopped,,,,
2026-06-18 23:43:15.275,50,0.043821,0.155145,9.774257,334.556393,,,,,,,0.000141,0.000143,-0.000024,8.747522,21.794924,6.025193,972.337669,15,0,stopped,,,,
2026-06-18 23:43:15.325,50,0.043809,0.155167,9.774246,334.557841,,,,,,,0.000226,0.000165,0.000075,8.747400,21.792046,6.021753,972.337603,15,0,stopped,,,,
2026-06-18 23:43:15.375,50,0.043797,0.155190,9.774235,334.558065,,,,,,,0.000195,0.000129,0.000069,8.747278,21.789165,6.018308,972.337536,15,0,stopped,,,,
2026-06-18 23:43:15.425,50,0.043785,0.155212,9.774223,334.557336,,,,,,,0.000063,-0.000003,0.000018,8.747155,21.786280,6.014859,972.337470,15,0,stopped,,,,
2026-06-18 23:43:15.475,50,0.043772,0.155235,9.774212,334.557179,,,,,,,-0.000053,-0.000119,-0.000027,8.747033,21.783392,6.011406,972.337403,15,0,stopped,,,,
2026-06-18 23:43:15.525,50,0.043760,0.155257,9.774201,334.557100,,,,,,,-0.000062,-0.000119,-0.000037,8.746910,21.780501,6.007950,972.337336,15,0,stopped,,,,
2026-06-18 23:43:15.575,50,0.043748,0.155280,9.774189,334.557795,,,,,,,-0.000040,-0.000058,-0.000050,8.746787,21.777606,6.004489,972.337269,15,0,stopped,,,,
2026-06-18 23:43:15.625,50,0.043735,0.155302,9.774178,334.558500,,,,,,,-0.000013,0.000003,-0.000063,8.746664,21.774708,6.001024,972.337203,15,0,stopped,,,,
2026-06-18 23:43:15.675,50,0.043723,0.155325,9.774167,334.560366,,,,,,,0.000010,0.000012,-0.000075,8.746541,21.771807,5.997556,972.337136,15,0,stopped,,,,
2026-06-18 23:43:15.725,50,0.043711,0.155347,9.774155,334.561172,,,,,,,0.000054,-0.000034,-0.000141,8.746418,21.768902,5.994083,972.337068,15,0,stopped,,,,
2026-06-18 23:43:15.775,50,0.043698,0.155370,9.774144,334.561256,,,,,,,0.000100,-0.000091,-0.000220,8.746294,21.765994,5.990607,972.337001,15,0,stopped,,,,
2026-06-18 23:43:15.825,50,0.043686,0.155393,9.774132,334.562347,,,,,,,0.000116,-0.000118,-0.000247,8.746170,21.763083,5.987126,972.336934,15,0,stopped,,,,
2026-06-18 23:43:15.875,50,0.043674,0.155415,9.774121,334.561945,,,,,,,0.000076,-0.000129,-0.000139,8.746047,21.760169,5.983642,972.336867,15,0,stopped,,,,
2026-06-18 23:43:15.925,50,0.043661,0.155438,9.774109,334.563086,,,,,,,-0.000001,-0.000142,0.000037,8.745923,21.757251,5.980154,972.336799,15,0,stopped,,,,
2026-06-18 23:43:15.975,50,0.043649,0.155461,9.774098,334.563562,,,,,,,-0.000087,-0.000150,0.000147,8.745798,21.754331,5.976663,972.336732,15,0,stopped,,,,
2026-06-18 23:43:16.025,50,0.043636,0.155484,9.774086,334.563281,,,,,,,-0.000161,-0.000140,0.000121,8.745674,21.751407,5.973167,972.336664,15,0,stopped,,,,
2026-06-18 23:43:16.075,50,0.043624,0.155507,9.774075,334.563027,,,,,,,-0.000219,-0.000113,0.000045,8.745550,21.748480,5.969668,972.336597,15,0,stopped,,,,
2026-06-18 23:43:16.125,50,0.043612,0.155529,9.774063,334.563263,,,,,,,-0.000249,-0.000087,-0.000013,8.745425,21.745550,5.966165,972.336529,15,0,stopped,,,,
2026-06-18 23:43:16.175,50,0.043599,0.155552,9.774052,334.564530,,,,,,,-0.000215,-0.000031,-0.000024,8.745300,21.742617,5.962658,972.336461,15,0,stopped,,,,
2026-06-18 23:43:16.225,50,0.043587,0.155575,9.774040,334.564848,,,,,,,-0.000101,0.000108,-0.000038,8.745175,21.739680,5.959147,972.336394,15,0,stopped,,,,
2026-06-18 23:43:16.275,50,0.043574,0.155598,9.774028,334.564563,,,,,,,0.000015,0.000230,-0.000048,8.745050,21.736741,5.955633,972.336326,15,0,stopped,,,,
2026-06-18 23:43:16.325,50,0.043562,0.155621,9.774017,334.565438,,,,,,,0.000075,0.000248,-0.000042,8.744925,21.733798,5.952116,972.336258,15,0,stopped,,,,
2026-06-18 23:43:16.375,50,0.043549,0.155644,9.774005,334.566819,,,,,,,0.000134,0.000232,0.000006,8.744799,21.730853,5.948594,972.336190,15,0,stopped,,,,
2026-06-18 23:43:16.425,50,0.043537,0.155667,9.773994,334.566486,,,,,,,0.000184,0.000212,0.000062,8.744674,21.727905,5.945069,972.336122,15,0,stopped,,,,
2026-06-18 23:43:16.475,50,0.043524,0.155690,9.773982,334.566998,,,,,,,0.000199,0.000197,0.000083,8.744548,21.724953,5.941541,972.336054,15,0,stopped,,,,
2026-06-18 23:43:16.525,50,0.043512,0.155713,9.773970,334.569019,,,,,,,0.000173,0.000152,0.000089,8.744422,21.721998,5.938008,972.335985,15,0,stopped,,,,
2026-06-18 23:43:16.575,50,0.043499,0.155736,9.773959,334.569235,,,,,,,0.000134,0.000092,0.000096,8.744296,21.719041,5.934473,972.335917,15,0,stopped,,,,
2026-06-18 23:43:16.625,50,0.043486,0.155760,9.773947,334.570388,,,,,,,0.000117,0.000068,0.000106,8.744169,21.716081,5.930933,972.335849,15,0,stopped,,,,
2026-06-18 23:43:16.675,50,0.043474,0.155783,9.773935,334.571005,,,,,,,0.000139,0.000138,0.000574,8.744043,21.713117,5.927391,972.335780,15,0,stopped,,,,
2026-06-18 23:43:16.725,50,0.043461,0.155806,9.773923,334.571625,,,,,,,0.000179,0.000257,0.001362,8.743916,21.710151,5.923844,972.335712,15,0,stopped,,,,
2026-06-18 23:43:16.775,50,0.043449,0.155829,9.773912,334.571228,,,,,,,0.000214,0.000331,0.001855,8.743790,21.707182,5.920294,972.335643,15,0,stopped,,,,
2026-06-18 23:43:16.825,50,0.043436,0.155852,9.773900,334.572690,,,,,,,0.000292,0.000280,0.001823,8.743663,21.704210,5.916741,972.335575,15,0,stopped,,,,
2026-06-18 23:43:16.875,50,0.043423,0.155876,9.773888,334.575786,,,,,,,0.000458,0.000127,0.001709,8.743536,21.701235,5.913185,972.335506,15,0,stopped,,,,
2026-06-18 23:43:16.925,50,0.043411,0.155899,9.773876,334.569866,,,,,,,0.000587,-0.000056,0.001593,8.743409,21.698257,5.909625,972.335437,15,0,stopped,,,,
2026-06-18 23:43:16.975,50,0.043398,0.155922,9.773865,334.583317,,,,,,,0.000545,-0.000216,0.001430,8.743281,21.695276,5.906061,972.335368,15,0,stopped,,,,
2026-06-18 23:43:17.025,50,0.043385,0.155946,9.773853,334.580833,,,,,,,0.000318,-0.000368,0.000974,8.743154,21.692293,5.902494,972.335299,15,0,stopped,,,,
2026-06-18 23:43:17.075,50,0.043373,0.155969,9.773841,334.576759,,,,,,,0.000104,-0.000468,0.000549,8.743026,21.689307,5.898924,972.335230,15,0,stopped,,,,
2026-06-18 23:43:17.125,50,0.043360,0.155993,9.773829,334.565882,,,,,,,0.000080,-0.000457,0.000440,8.742898,21.686318,5.895351,972.335161,15,0,stopped,,,,
2026-06-18 23:43:17.175,50,0.043347,0.156016,9.773817,334.570147,,,,,,,0.000160,-0.000295,0.000336,8.742771,21.683326,5.891774,972.335092,15,0,stopped,,,,
2026-06-18 23:43:17.225,50,0.043334,0.156040,9.773805,334.571852,,,,,,,0.000257,-0.000098,0.000218,8.742642,21.680332,5.888194,972.335023,15,0,stopped,,,,
2026-06-18 23:43:17.275,50,0.043322,0.156063,9.773794,334.571707,,,,,,,0.000300,0.000001,0.000148,8.742514,21.677334,5.884611,972.334954,15,0,stopped,,,,
2026-06-18 23:43:17.325,50,0.043309,0.156087,9.773782,334.574818,,,,,,,0.000183,0.000038,-0.000183,8.742386,21.674334,5.881024,972.334885,15,0,stopped,,,,
2026-06-18 23:43:17.375,50,0.043296,0.156110,9.773770,334.576434,,,,,,,-0.000055,0.000092,-0.000743,8.742257,21.671332,5.877435,972.334815,15,0,stopped,,,,
2026-06-18 23:43:17.425,50,0.043283,0.156134,9.773758,334.575146,,,,,,,-0.000283,0.000131,-0.001079,8.742129,21.668326,5.873842,972.334746,15,0,stopped,,,,
2026-06-18 23:43:17.475,50,0.043271,0.156157,9.773746,334.575717,,,,,,,-0.000546,0.000175,-0.001012,8.742000,21.665318,5.870246,972.334676,15,0,stopped,,,,
2026-06-18 23:43:17.525,50,0.043258,0.156181,9.773734,334.578770,,,,,,,-0.000908,0.000250,-0.000841,8.741871,21.662308,5.866646,972.334607,15,0,stopped,,,,
2026-06-18 23:43:17.575,50,0.043245,0.156205,9.773722,334.584336,,,,,,,-0.001127,0.000299,-0.000696,8.741742,21.659295,5.863044,972.334537,15,0,stopped,,,,
2026-06-18 23:43:17.625,50,0.043232,0.156228,9.773710,334.594202,,,,,,,-0.001001,0.000265,-0.000608,8.741612,21.656279,5.859439,972.334468,15,0,stopped,,,,
2026-06-18 23:43:17.675,50,0.043219,0.156252,9.773698,334.604343,,,,,,,-0.000657,0.000169,-0.000491,8.741483,21.653260,5.855830,972.334398,15,0,stopped,,,,
2026-06-18 23:43:17.725,50,0.043207,0.156276,9.773686,334.603628,,,,,,,-0.000361,0.000074,-0.000383,8.741353,21.650239,5.852218,972.334328,15,0,stopped,,,,
2026-06-18 23:43:17.775,50,0.043194,0.156300,9.773674,334.600991,,,,,,,-0.000289,0.000023,-0.000293,8.741224,21.647216,5.848604,972.334258,15,0,stopped,,,,
2026-06-18 23:43:17.825,50,0.043181,0.156324,9.773662,334.608444,,,,,,,-0.000209,-0.000029,-0.000147,8.741094,21.644190,5.844986,972.334189,15,0,stopped,,,,
2026-06-18 23:43:17.875,50,0.043168,0.156347,9.773650,334.610076,,,,,,,-0.000124,-0.000070,-0.000011,8.740964,21.641161,5.841365,972.334119,15,0,stopped,,,,
2026-06-18 23:43:17.925,50,0.043155,0.156371,9.773638,334.609187,,,,,,,-0.000075,-0.000082,0.000032,8.740834,21.638130,5.837741,972.334049,15,0,stopped,,,,
2026-06-18 23:43:17.975,50,0.043142,0.156395,9.773626,334.610684,,,,,,,0.000005,-0.000061,0.000004,8.740703,21.635097,5.834115,972.333979,15,0,stopped,,,,
2026-06-18 23:43:18.025,50,0.043129,0.156419,9.773614,334.611658,,,,,,,0.000100,-0.000026,-0.000034,8.740573,21.632061,5.830485,972.333908,15,0,stopped,,,,
2026-06-18 23:43:18.075,50,0.043117,0.156443,9.773602,334.612548,,,,,,,0.000129,0.000006,-0.000051,8.740442,21.629022,5.826852,972.333838,15,0,stopped,,,,
2026-06-18 23:43:18.125,50,0.043104,0.156467,9.773590,334.613673,,,,,,,0.000024,0.000043,-0.000061,8.740312,21.625981,5.823217,972.333768,15,0,stopped,,,,
2026-06-18 23:43:18.175,50,0.043091,0.156491,9.773578,334.613883,,,,,,,-0.000132,0.000080,-0.000074,8.740181,21.622938,5.819579,972.333698,15,0,stopped,,,,
2026-06-18 23:43:18.225,50,0.043078,0.156515,9.773565,334.614914,,,,,,,-0.000217,0.000100,-0.000083,8.740050,21.619892,5.815937,972.333627,15,0,stopped,,,,
2026-06-18 23:43:18.275,50,0.043065,0.156539,9.773553,334.615913,,,,,,,-0.000208,0.000105,-0.000106,8.739919,21.616844,5.812293,972.333557,15,0,stopped,,,,
2026-06-18 23:43:18.325,50,0.043052,0.156563,9.773541,334.616851,,,,,,,-0.000184,0.000112,-0.000151,8.739787,21.613794,5.808647,972.333487,15,0,stopped,,,,
2026-06-18 23:43:18.375,50,0.043039,0.156587,9.773529,334.617739,,,,,,,-0.000156,0.000117,-0.000182,8.739656,21.610741,5.804997,972.333416,15,0,stopped,,,,
2026-06-18 23:43:18.425,50,0.043026,0.156611,9.773517,334.618758,,,,,,,-0.000132,0.000095,-0.000179,8.739524,21.607686,5.801344,972.333346,15,0,stopped,,,,
2026-06-18 23:43:18.475,50,0.043013,0.156636,9.773505,334.619261,,,,,,,-0.000112,0.000030,-0.000167,8.739393,21.604629,5.797689,972.333275,15,0,stopped,,,,
2026-06-18 23:43:18.525,50,0.043000,0.156660,9.773492,334.620647,,,,,,,-0.000101,-0.000026,-0.000154,8.739261,21.601569,5.794031,972.333204,15,0,stopped,,,,
2026-06-18 23:43:18.575,50,0.042987,0.156684,9.773480,334.622385,,,,,,,-0.000104,-0.000033,-0.000133,8.739129,21.598507,5.790371,972.333134,15,0,stopped,,,,
2026-06-18 23:43:18.625,50,0.042974,0.156708,9.773468,334.623188,,,,,,,-0.000126,-0.000033,-0.000064,8.738997,21.595443,5.786707,972.333063,15,0,stopped,,,,
2026-06-18 23:43:18.675,50,0.042961,0.156732,9.773456,334.623930,,,,,,,-0.000152,-0.000033,0.000009,8.738864,21.592377,5.783041,972.332992,15,0,stopped,,,,
2026-06-18 23:43:18.725,50,0.042948,0.156757,9.773443,334.623759,,,,,,,-0.000175,-0.000036,0.000030,8.738732,21.589308,5.779373,972.332921,15,0,stopped,,,,
2026-06-18 23:43:18.775,50,0.042935,0.156781,9.773431,334.623660,,,,,,,-0.000290,-0.000092,-0.000031,8.738600,21.586237,5.775701,972.332850,15,0,stopped,,,,
2026-06-18 23:43:18.825,50,0.042922,0.156805,9.773419,334.624143,,,,,,,-0.000441,-0.000169,-0.000116,8.738467,21.583164,5.772027,972.332779,15,0,stopped,,,,
2026-06-18 23:43:18.875,50,0.042909,0.156830,9.773407,334.625069,,,,,,,-0.000497,-0.000199,-0.000149,8.738334,21.580089,5.768351,972.332708,15,0,stopped,,,,
2026-06-18 23:43:18.925,50,0.042896,0.156854,9.773394,334.625666,,,,,,,-0.000384,-0.000144,-0.000093,8.738201,21.577012,5.764672,972.332637,15,0,stopped,,,,
2026-06-18 23:43:18.975,50,0.042882,0.156878,9.773382,334.628259,,,,,,,-0.000199,-0.000056,0.000007,8.738068,21.573932,5.760990,972.332566,15,0,stopped,,,,
2026-06-18 23:43:19.025,50,0.042869,0.156903,9.773370,334.627866,,,,,,,-0.000070,-0.000001,0.000096,8.737935,21.570850,5.757306,972.332495,15,0,stopped,,,,
2026-06-18 23:43:19.075,50,0.042856,0.156927,9.773357,334.628052,,,,,,,-0.000005,0.000019,0.000209,8.737802,21.567767,5.753620,972.332424,15,0,stopped,,,,
2026-06-18 23:43:19.125,50,0.042843,0.156952,9.773345,334.627668,,,,,,,0.000073,0.000050,0.000370,8.737668,21.564681,5.749930,972.332352,15,0,stopped,,,,
2026-06-18 23:43:19.175,50,0.042830,0.156976,9.773332,334.628415,,,,,,,0.000127,0.000077,0.000486,8.737535,21.561593,5.746239,972.332281,15,0,stopped,,,,
2026-06-18 23:43:19.225,50,0.042817,0.157001,9.773320,334.630079,,,,,,,0.000110,0.000092,0.000487,8.737401,21.558503,5.742545,972.332210,15,0,stopped,,,,
2026-06-18 23:43:19.275,50,0.042804,0.157025,9.773308,334.628710,,,,,,,0.000010,0.000113,0.000424,8.737267,21.555411,5.738848,972.332138,15,0,stopped,,,,
2026-06-18 23:43:19.325,50,0.042791,0.157050,9.773295,334.628230,,,,,,,-0.000085,0.000130,0.000338,8.737133,21.552318,5.735150,972.332067,15,0,stopped,,,,
2026-06-18 23:43:19.375,50,0.042777,0.157074,9.773283,334.628975,,,,,,,-0.000072,0.000122,0.000261,8.736999,21.549222,5.731448,972.331995,15,0,stopped,,,,
2026-06-18 23:43:19.425,50,0.042764,0.157099,9.773270,334.628489,,,,,,,0.000082,0.000058,0.000193,8.736865,21.546124,5.727745,972.331924,15,0,stopped,,,,
2026-06-18 23:43:19.475,50,0.042751,0.157124,9.773258,334.628345,,,,,,,0.000250,-0.000012,0.000145,8.736730,21.543024,5.724039,972.331852,15,0,stopped,,,,
2026-06-18 23:43:19.525,50,0.042738,0.157148,9.773246,334.628331,,,,,,,0.000299,-0.000030,0.000139,8.736596,21.539922,5.720331,972.331781,15,0,stopped,,,,
2026-06-18 23:43:19.575,50,0.042725,0.157173,9.773233,334.627527,,,,,,,0.000289,0.000017,0.000233,8.736461,21.536819,5.716620,972.331709,15,0,stopped,,,,
2026-06-18 23:43:19.625,50,0.042712,0.157198,9.773221,334.628125,,,,,,,0.000274,0.000082,0.000364,8.736326,21.533713,5.712907,972.331637,15,0,stopped,,,,
2026-06-18 23:43:19.675,50,0.042698,0.157222,9.773208,334.627982,,,,,,,0.000266,0.000117,0.000433,8.736192,21.530606,5.709192,972.331566,15,0,stopped,,,,
2026-06-18 23:43:19.725,50,0.042685,0.157247,9.773196,334.628151,,,,,,,0.000266,0.000043,0.000433,8.736057,21.527496,5.705475,972.331494,15,0,stopped,,,,
2026-06-18 23:43:19.775,50,0.042672,0.157272,9.773183,334.628910,,,,,,,0.000266,-0.000105,0.000433,8.735921,21.524385,5.701756,972.331422,15,0,stopped,,,,
2026-06-18 23:43:19.825,50,0.042659,0.157297,9.773171,334.627904,,,,,,,0.000266,-0.000199,0.000433,8.735786,21.521272,5.698034,972.331350,15,0,stopped,,,,
2026-06-18 23:43:19.875,50,0.042645,0.157322,9.773158,334.627749,,,,,,,0.000231,-0.000181,0.000423,8.735651,21.518157,5.694310,972.331278,15,0,stopped,,,,
2026-06-18 23:43:19.925,50,0.042632,0.157346,9.773145,334.626676,,,,,,,0.000146,-0.000133,0.000398,8.735515,21.515041,5.690584,972.331206,15,0,stopped,,,,
2026-06-18 23:43:19.975,50,0.042619,0.157371,9.773133,334.625912,,,,,,,0.000076,-0.000091,0.000373,8.735380,21.511922,5.686856,972.331134,15,0,stopped,,,,
2026-06-18 23:43:20.025,50,0.042606,0.157396,9.773120,334.624660,,,,,,,0.000083,-0.000077,0.000336,8.735244,21.508802,5.683126,972.331062,15,0,stopped,,,,
2026-06-18 23:43:20.075,50,0.042592,0.157421,9.773108,334.625142,,,,,,,0.000160,-0.000059,0.000213,8.735108,21.505680,5.679393,972.330990,15,0,stopped,,,,
2026-06-18 23:43:20.125,50,0.042579,0.157446,9.773095,334.625171,,,,,,,0.000242,-0.000041,0.000087,8.734972,21.502557,5.675659,972.330918,15,0,stopped,,,,
2026-06-18 23:43:20.175,50,0.042566,0.157471,9.773083,334.624066,,,,,,,0.000265,-0.000030,0.000055,8.734836,21.499431,5.671922,972.330846,15,0,stopped,,,,
2026-06-18 23:43:20.225,50,0.042553,0.157496,9.773070,334.623596,,,,,,,0.000245,-0.000011,0.000121,8.734700,21.496304,5.668184,972.330773,15,0,stopped,,,,
2026-06-18 23:43:20.275,50,0.042539,0.157521,9.773057,334.624243,,,,,,,0.000216,0.000010,0.000205,8.734563,21.493176,5.664444,972.330701,15,0,stopped,,,,
2026-06-18 23:43:20.325,50,0.042526,0.157546,9.773045,334.625195,,,,,,,0.000195,0.000015,0.000231,8.734427,21.490045,5.660701,972.330629,15,0,stopped,,,,
2026-06-18 23:43:20.375,50,0.042513,0.157571,9.773032,334.625376,,,,,,,0.000149,-0.000022,0.000198,8.734290,21.486913,5.656957,972.330557,15,0,stopped,,,,
2026-06-18 23:43:20.425,50,0.042499,0.157596,9.773019,334.625430,,,,,,,0.000086,-0.000075,0.000144,8.734154,21.483780,5.653210,972.330484,15,0,stopped,,,,
2026-06-18 23:43:20.475,50,0.042486,0.157621,9.773007,334.624771,,,,,,,0.000031,-0.000100,0.000099,8.734017,21.480644,5.649462,972.330412,15,0,stopped,,,,
2026-06-18 23:43:20.525,50,0.042473,0.157646,9.772994,334.625861,,,,,,,-0.000041,-0.000080,0.000030,8.733880,21.477508,5.645712,972.330339,15,0,stopped,,,,
2026-06-18 23:43:20.575,50,0.042459,0.157671,9.772981,334.626277,,,,,,,-0.000134,-0.000038,-0.000065,8.733743,21.474369,5.641960,972.330267,15,0,stopped,,,,
2026-06-18 23:43:20.625,50,0.042446,0.157697,9.772969,334.626313,,,,,,,-0.000196,0.000006,-0.000129,8.733605,21.471229,5.638206,972.330194,15,0,stopped,,,,
2026-06-18 23:43:20.675,50,0.042433,0.157722,9.772956,334.625483,,,,,,,-0.000178,0.000048,-0.000105,8.733468,21.468088,5.634450,972.330122,15,0,stopped,,,,
2026-06-18 23:43:20.725,50,0.042419,0.157747,9.772943,334.628518,,,,,,,-0.000105,0.000104,-0.000010,8.733331,21.464945,5.630693,972.330049,15,0,stopped,,,,
2026-06-18 23:43:20.775,50,0.042406,0.157772,9.772930,334.628465,,,,,,,-0.000041,0.000145,0.000073,8.733193,21.461800,5.626934,972.329977,15,0,stopped,,,,
2026-06-18 23:43:20.825,50,0.042393,0.157797,9.772918,334.626390,,,,,,,-0.000040,0.000138,0.000053,8.733056,21.458654,5.623172,972.329904,15,0,stopped,,,,
2026-06-18 23:43:20.875,50,0.042379,0.157823,9.772905,334.626293,,,,,,,-0.000074,0.000085,-0.000087,8.732918,21.455507,5.619410,972.329831,15,0,stopped,,,,
2026-06-18 23:43:20.925,50,0.042366,0.157848,9.772892,334.626618,,,,,,,-0.000108,0.000031,-0.000231,8.732780,21.452358,5.615645,972.329759,15,0,stopped,,,,
2026-06-18 23:43:20.975,50,0.042353,0.157873,9.772879,334.627777,,,,,,,-0.000113,0.000018,-0.000262,8.732642,21.449208,5.611879,972.329686,15,0,stopped,,,,
2026-06-18 23:43:21.025,50,0.042339,0.157899,9.772867,334.629194,,,,,,,-0.000072,0.000027,-0.000218,8.732504,21.446056,5.608111,972.329613,15,0,stopped,,,,
2026-06-18 23:43:21.075,50,0.042326,0.157924,9.772854,334.630283,,,,,,,-0.000013,0.000040,-0.000153,8.732366,21.442903,5.604341,972.329540,15,0,stopped,,,,
2026-06-18 23:43:21.125,50,0.042312,0.157949,9.772841,334.629827,,,,,,,0.000035,0.000050,-0.000098,8.732227,21.439749,5.600570,972.329467,15,0,stopped,,,,
2026-06-18 23:43:21.175,50,0.042299,0.157975,9.772828,334.631008,,,,,,,0.000141,0.000075,-0.000021,8.732089,21.436593,5.596797,972.329394,15,0,stopped,,,,
2026-06-18 23:43:21.225,50,0.042286,0.158000,9.772815,334.633474,,,,,,,0.000299,0.000113,0.000087,8.731950,21.433436,5.593022,972.329322,15,0,stopped,,,,
2026-06-18 23:43:21.275,50,0.042272,0.158026,9.772802,334.635269,,,,,,,0.000383,0.000133,0.000166,8.731811,21.430277,5.589246,972.329249,15,0,stopped,,,,
2026-06-18 23:43:21.325,50,0.042259,0.158051,9.772790,334.636303,,,,,,,0.000327,0.000122,0.000216,8.731673,21.427117,5.585469,972.329176,15,0,stopped,,,,
2026-06-18 23:43:21.375,50,0.042245,0.158076,9.772777,334.635827,,,,,,,0.000205,0.000101,0.000267,8.731534,21.423956,5.581690,972.329103,15,0,stopped,,,,
2026-06-18 23:43:21.425,50,0.042232,0.158102,9.772764,334.636059,,,,,,,0.000100,0.000084,0.000298,8.731395,21.420794,5.577909,972.329030,15,0,stopped,,,,
2026-06-18 23:43:21.475,50,0.042218,0.158127,9.772751,334.638077,,,,,,,0.000053,0.000086,0.000257,8.731256,21.417630,5.574127,972.328957,15,0,stopped,,,,
2026-06-18 23:43:21.525,50,0.042205,0.158153,9.772738,334.639274,,,,,,,-0.000004,0.000099,0.000105,8.731116,21.414465,5.570343,972.328883,15,0,stopped,,,,
2026-06-18 23:43:21.575,50,0.042192,0.158179,9.772725,334.639004,,,,,,,-0.000054,0.000113,-0.000031,8.730977,21.411299,5.566558,972.328810,15,0,stopped,,,,
2026-06-18 23:43:21.625,50,0.042178,0.158204,9.772712,334.638438,,,,,,,-0.000079,0.000128,-0.000011,8.730838,21.408132,5.562771,972.328737,15,0,stopped,,,,
2026-06-18 23:43:21.675,50,0.042165,0.158230,9.772699,334.638428,,,,,,,-0.000100,0.000168,0.000180,8.730698,21.404963,5.558983,972.328664,15,0,stopped,,,,
2026-06-18 23:43:21.725,50,0.042151,0.158255,9.772686,334.638183,,,,,,,-0.000114,0.000207,0.000380,8.730559,21.401794,5.555194,972.328591,15,0,stopped,,,,
2026-06-18 23:43:21.775,50,0.042138,0.158281,9.772673,334.638766,,,,,,,-0.000115,0.000204,0.000418,8.730419,21.398623,5.551403,972.328518,15,0,stopped,,,,
2026-06-18 23:43:21.825,50,0.042124,0.158307,9.772661,334.639484,,,,,,,-0.000089,0.000054,0.000252,8.730279,21.395451,5.547611,972.328444,15,0,stopped,,,,
2026-06-18 23:43:21.875,50,0.042111,0.158332,9.772648,334.638553,,,,,,,-0.000054,-0.000142,0.000034,8.730139,21.392278,5.543818,972.328371,15,0,stopped,,,,
2026-06-18 23:43:21.925,50,0.042097,0.158358,9.772635,334.637913,,,,,,,-0.000033,-0.000233,-0.000067,8.729999,21.389104,5.540023,972.328298,15,0,stopped,,,,
2026-06-18 23:43:21.975,50,0.042084,0.158384,9.772622,334.637038,,,,,,,-0.000021,-0.000124,0.000016,8.729859,21.385929,5.536227,972.328224,15,0,stopped,,,,
2026-06-18 23:43:22.025,50,0.042070,0.158409,9.772609,334.637401,,,,,,,-0.000007,0.000069,0.000163,8.729718,21.382753,5.532429,972.328151,15,0,stopped,,,,
2026-06-18 23:43:22.075,50,0.042057,0.158435,9.772596,334.638273,,,,,,,-0.000000,0.000182,0.000249,8.729578,21.379575,5.528631,972.328078,15,0,stopped,,,,
2026-06-18 23:43:22.125,50,0.042043,0.158461,9.772583,334.639213,,,,,,,-0.000052,0.000141,0.000178,8.729438,21.376397,5.524831,972.328004,15,0,stopped,,,,
2026-06-18 23:43:22.175,50,0.042030,0.158487,9.772570,334.638440,,,,,,,-0.000169,0.000046,0.000017,8.729297,21.373218,5.521030,972.327931,15,0,stopped,,,,
2026-06-18 23:43:22.225,50,0.042016,0.158512,9.772557,334.637296,,,,,,,-0.000258,-0.000027,-0.000107,8.729156,21.370037,5.517228,972.327857,15,0,stopped,,,,
2026-06-18 23:43:22.275,50,0.042003,0.158538,9.772544,334.636880,,,,,,,-0.000236,-0.000010,-0.000112,8.729015,21.366856,5.513425,972.327784,15,0,stopped,,,,
2026-06-18 23:43:22.325,50,0.041989,0.158564,9.772530,334.637803,,,,,,,-0.000122,0.000076,-0.000092,8.728875,21.363674,5.509620,972.327711,15,0,stopped,,,,
2026-06-18 23:43:22.375,50,0.041976,0.158590,9.772517,334.639999,,,,,,,0.000003,0.000161,-0.000072,8.728734,21.360491,5.505814,972.327637,15,0,stopped,,,,
2026-06-18 23:43:22.425,50,0.041962,0.158616,9.772504,334.639952,,,,,,,0.000065,0.000174,-0.000068,8.728592,21.357306,5.502008,972.327563,15,0,stopped,,,,
2026-06-18 23:43:22.475,50,0.041949,0.158642,9.772491,334.640587,,,,,,,0.000123,0.000083,-0.000073,8.728451,21.354121,5.498200,972.327490,15,0,stopped,,,,
2026-06-18 23:43:22.525,50,0.041935,0.158668,9.772478,334.641608,,,,,,,0.000179,-0.000029,-0.000081,8.728310,21.350935,5.494391,972.327416,15,0,stopped,,,,
2026-06-18 23:43:22.575,50,0.041922,0.158694,9.772465,334.641088,,,,,,,0.000202,-0.000066,-0.000082,8.728169,21.347749,5.490581,972.327343,15,0,stopped,,,,
2026-06-18 23:43:22.625,50,0.041908,0.158719,9.772452,334.641278,,,,,,,0.000215,-0.000050,-0.000056,8.728027,21.344561,5.486770,972.327269,15,0,stopped,,,,
2026-06-18 23:43:22.675,50,0.041894,0.158745,9.772439,334.641579,,,,,,,0.000228,-0.000027,-0.000019,8.727885,21.341373,5.482958,972.327195,15,0,stopped,,,,
2026-06-18 23:43:22.725,50,0.041881,0.158771,9.772426,334.642701,,,,,,,0.000233,-0.000017,0.000000,8.727744,21.338183,5.479145,972.327122,15,0,stopped,,,,
2026-06-18 23:43:22.775,50,0.041867,0.158797,9.772413,334.642772,,,,,,,0.000233,-0.000017,0.000009,8.727602,21.334993,5.475332,972.327048,15,0,stopped,,,,
2026-06-18 23:43:22.825,50,0.041854,0.158823,9.772400,334.642338,,,,,,,0.000233,-0.000017,0.000022,8.727460,21.331802,5.471517,972.326974,15,0,stopped,,,,
2026-06-18 23:43:22.875,50,0.041840,0.158849,9.772386,334.643633,,,,,,,0.000233,-0.000017,0.000032,8.727318,21.328611,5.467701,972.326901,15,0,stopped,,,,
2026-06-18 23:43:22.925,50,0.041827,0.158875,9.772373,334.644105,,,,,,,0.000219,0.000006,0.000044,8.727176,21.325418,5.463885,972.326827,15,0,stopped,,,,
2026-06-18 23:43:22.975,50,0.041813,0.158902,9.772360,334.645611,,,,,,,0.000174,0.000082,0.000074,8.727034,21.322225,5.460067,972.326753,15,0,stopped,,,,
2026-06-18 23:43:23.025,50,0.041799,0.158928,9.772347,334.645665,,,,,,,0.000137,0.000144,0.000098,8.726892,21.319032,5.456249,972.326680,15,0,stopped,,,,
2026-06-18 23:43:23.075,50,0.041786,0.158954,9.772334,334.645973,,,,,,,0.000133,0.000138,0.000099,8.726749,21.315837,5.452430,972.326606,15,0,stopped,,,,
2026-06-18 23:43:23.125,50,0.041772,0.158980,9.772321,334.646859,,,,,,,0.000133,0.000091,0.000093,8.726607,21.312642,5.448610,972.326532,15,0,stopped,,,,
2026-06-18 23:43:23.175,50,0.041759,0.159006,9.772307,334.647058,,,,,,,0.000133,0.000045,0.000086,8.726464,21.309446,5.444789,972.326458,15,0,stopped,,,,
2026-06-18 23:43:23.225,50,0.041745,0.159032,9.772294,334.648701,,,,,,,0.000118,0.000038,0.000071,8.726322,21.306250,5.440968,972.326384,15,0,stopped,,,,
2026-06-18 23:43:23.275,50,0.041732,0.159058,9.772281,334.648980,,,,,,,-0.000039,0.000095,-0.000055,8.726179,21.303052,5.437145,972.326311,15,0,stopped,,,,
2026-06-18 23:43:23.325,50,0.041718,0.159085,9.772268,334.648165,,,,,,,-0.000242,0.000167,-0.000220,8.726036,21.299855,5.433323,972.326237,15,0,stopped,,,,
2026-06-18 23:43:23.375,50,0.041704,0.159111,9.772254,334.648058,,,,,,,-0.000333,0.000200,-0.000301,8.725893,21.296656,5.429499,972.326163,15,0,stopped,,,,
2026-06-18 23:43:23.425,50,0.041691,0.159137,9.772241,334.648391,,,,,,,-0.000307,0.000171,-0.000324,8.725750,21.293458,5.425675,972.326089,15,0,stopped,,,,
2026-06-18 23:43:23.475,50,0.041677,0.159163,9.772228,334.651289,,,,,,,-0.000258,0.000116,-0.000352,8.725607,21.290258,5.421850,972.326015,15,0,stopped,,,,
2026-06-18 23:43:23.525,50,0.041664,0.159189,9.772215,334.651827,,,,,,,-0.000217,0.000067,-0.000366,8.725464,21.287058,5.418024,972.325941,15,0,stopped,,,,
2026-06-18 23:43:23.575,50,0.041650,0.159216,9.772201,334.650045,,,,,,,-0.000141,0.000001,-0.000266,8.725321,21.283858,5.414198,972.325867,15,0,stopped,,,,
2026-06-18 23:43:23.625,50,0.041636,0.159242,9.772188,334.651033,,,,,,,-0.000021,-0.000088,-0.000069,8.725178,21.280657,5.410371,972.325793,15,0,stopped,,,,
2026-06-18 23:43:23.675,50,0.041623,0.159268,9.772175,334.653892,,,,,,,0.000062,-0.000146,0.000073,8.725034,21.277455,5.406543,972.325719,15,0,stopped,,,,
2026-06-18 23:43:23.725,50,0.041609,0.159295,9.772162,334.653108,,,,,,,0.000052,-0.000128,0.000071,8.724891,21.274253,5.402715,972.325645,15,0,stopped,,,,
2026-06-18 23:43:23.775,50,0.041596,0.159321,9.772148,334.653250,,,,,,,0.000000,-0.000055,0.000027,8.724747,21.271051,5.398887,972.325571,15,0,stopped,,,,
2026-06-18 23:43:23.825,50,0.041582,0.159347,9.772135,334.653745,,,,,,,-0.000044,0.000009,-0.000020,8.724603,21.267848,5.395058,972.325497,15,0,stopped,,,,
2026-06-18 23:43:23.875,50,0.041568,0.159374,9.772122,334.655209,,,,,,,0.000037,-0.000010,-0.000086,8.724459,21.264645,5.391228,972.325424,15,0,stopped,,,,
2026-06-18 23:43:23.925,50,0.041555,0.159400,9.772108,334.656494,,,,,,,0.000448,-0.000136,-0.000296,8.724316,21.261442,5.387398,972.325350,15,0,stopped,,,,
2026-06-18 23:43:23.975,50,0.041541,0.159426,9.772095,334.656374,,,,,,,0.000867,-0.000267,-0.000502,8.724172,21.258238,5.383568,972.325276,15,0,stopped,,,,
2026-06-18 23:43:24.025,50,0.041528,0.159453,9.772082,334.657408,,,,,,,0.000952,-0.000303,-0.000528,8.724028,21.255033,5.379737,972.325202,15,0,stopped,,,,
2026-06-18 23:43:24.075,50,0.041514,0.159479,9.772068,334.659865,,,,,,,0.000826,-0.000315,-0.000315,8.723884,21.251829,5.375906,972.325128,15,0,stopped,,,,
2026-06-18 23:43:24.125,50,0.041500,0.159506,9.772055,334.663872,,,,,,,0.000663,-0.000328,-0.000025,8.723739,21.248624,5.372074,972.325054,15,0,stopped,,,,
2026-06-18 23:43:24.175,50,0.041487,0.159532,9.772042,334.665286,,,,,,,0.000581,-0.000332,0.000159,8.723595,21.245418,5.368242,972.324979,15,0,stopped,,,,
2026-06-18 23:43:24.225,50,0.041473,0.159559,9.772028,334.666344,,,,,,,0.000537,-0.000213,0.000281,8.723451,21.242213,5.364410,972.324905,15,0,stopped,,,,
2026-06-18 23:43:24.275,50,0.041460,0.159585,9.772015,334.665374,,,,,,,0.000476,-0.000013,0.000405,8.723306,21.239007,5.360577,972.324831,15,0,stopped,,,,
2026-06-18 23:43:24.325,50,0.041446,0.159612,9.772001,334.665881,,,,,,,0.000434,0.000100,0.000466,8.723162,21.235801,5.356744,972.324757,15,0,stopped,,,,
2026-06-18 23:43:24.375,50,0.041432,0.159638,9.771988,334.666438,,,,,,,0.000380,0.000062,0.000201,8.723017,21.232594,5.352910,972.324683,15,0,stopped,,,,
2026-06-18 23:43:24.425,50,0.041419,0.159665,9.771975,334.664921,,,,,,,0.000270,-0.000020,-0.000362,8.722872,21.229388,5.349077,972.324609,15,0,stopped,,,,
2026-06-18 23:43:24.475,50,0.041405,0.159691,9.771961,334.663954,,,,,,,0.000148,-0.000079,-0.000773,8.722728,21.226181,5.345243,972.324535,15,0,stopped,,,,
2026-06-18 23:43:24.525,50,0.041391,0.159718,9.771948,334.663733,,,,,,,0.000040,-0.000053,-0.000706,8.722583,21.222974,5.341409,972.324461,15,0,stopped,,,,
2026-06-18 23:43:24.575,50,0.041378,0.159744,9.771934,334.671843,,,,,,,-0.000056,0.000047,-0.000393,8.722438,21.219767,5.337575,972.324387,15,0,stopped,,,,
2026-06-18 23:43:24.625,50,0.041364,0.159771,9.771921,334.673406,,,,,,,-0.000120,0.000143,-0.000091,8.722293,21.216559,5.333740,972.324313,15,0,stopped,,,,
2026-06-18 23:43:24.675,50,0.041351,0.159797,9.771908,334.674034,,,,,,,-0.000123,0.000155,-0.000021,8.722148,21.213352,5.329906,972.324239,15,0,stopped,,,,
2026-06-18 23:43:24.725,50,0.041337,0.159824,9.771894,334.676334,,,,,,,-0.000029,0.000036,-0.000061,8.722003,21.210144,5.326071,972.324165,15,0,stopped,,,,
2026-06-18 23:43:24.775,50,0.041323,0.159851,9.771881,334.675877,,,,,,,0.000083,-0.000107,-0.000118,8.721857,21.206937,5.322236,972.324091,15,0,stopped,,,,
2026-06-18 23:43:24.825,50,0.041310,0.159877,9.771867,334.676029,,,,,,,0.000112,-0.000150,-0.000164,8.721712,21.203729,5.318401,972.324017,15,0,stopped,,,,
2026-06-18 23:43:24.875,50,0.041296,0.159904,9.771854,334.678883,,,,,,,0.000034,-0.000145,-0.000265,8.721567,21.200521,5.314566,972.323943,15,0,stopped,,,,
2026-06-18 23:43:24.925,50,0.041282,0.159931,9.771840,334.680307,,,,,,,-0.000070,-0.000138,-0.000383,8.721421,21.197314,5.310731,972.323869,15,0,stopped,,,,
2026-06-18 23:43:24.975,50,0.041269,0.159957,9.771827,334.681460,,,,,,,-0.000117,-0.000132,-0.000432,8.721276,21.194106,5.306896,972.323794,15,0,stopped,,,,
2026-06-18 23:43:25.025,50,0.041255,0.159984,9.771813,334.682025,,,,,,,-0.000097,-0.000067,-0.000324,8.721130,21.190898,5.303061,972.323720,15,0,stopped,,,,
2026-06-18 23:43:25.075,50,0.041241,0.160011,9.771800,334.682851,,,,,,,-0.000055,0.000046,-0.000125,8.720984,21.187690,5.299226,972.323646,15,0,stopped,,,,
2026-06-18 23:43:25.125,50,0.041228,0.160037,9.771786,334.685182,,,,,,,-0.000011,0.000127,0.000031,8.720839,21.184482,5.295391,972.323572,15,0,stopped,,,,
2026-06-18 23:43:25.175,50,0.041214,0.160064,9.771773,334.685455,,,,,,,0.000023,0.000126,0.000084,8.720693,21.181274,5.291556,972.323498,15,0,stopped,,,,
2026-06-18 23:43:25.225,50,0.041201,0.160091,9.771759,334.688377,,,,,,,0.000051,0.000103,0.000150,8.720547,21.178067,5.287721,972.323424,15,0,stopped,,,,
2026-06-18 23:43:25.275,50,0.041187,0.160118,9.771746,334.688198,,,,,,,0.000066,0.000085,0.000196,8.720401,21.174859,5.283886,972.323350,15,0,stopped,,,,
2026-06-18 23:43:25.325,50,0.041173,0.160145,9.771732,334.688531,,,,,,,0.000042,0.000084,0.000181,8.720255,21.171651,5.280051,972.323276,15,0,stopped,,,,
2026-06-18 23:43:25.375,50,0.041160,0.160171,9.771719,334.688691,,,,,,,-0.000047,0.000090,0.000101,8.720109,21.168444,5.276217,972.323202,15,0,stopped,,,,
2026-06-18 23:43:25.425,50,0.041146,0.160198,9.771705,334.688247,,,,,,,-0.000132,0.000097,0.000001,8.719963,21.165237,5.272382,972.323128,15,0,stopped,,,,
2026-06-18 23:43:25.475,50,0.041132,0.160225,9.771692,334.688334,,,,,,,-0.000145,0.000103,-0.000083,8.719816,21.162029,5.268548,972.323054,15,0,stopped,,,,
2026-06-18 23:43:25.525,50,0.041119,0.160252,9.771678,334.687962,,,,,,,-0.000110,0.000115,-0.000153,8.719670,21.158822,5.264714,972.322980,15,0,stopped,,,,
2026-06-18 23:43:25.575,50,0.041105,0.160279,9.771665,334.689020,,,,,,,-0.000068,0.000128,-0.000201,8.719524,21.155616,5.260880,972.322905,15,0,stopped,,,,
2026-06-18 23:43:25.625,50,0.041092,0.160305,9.771651,334.689559,,,,,,,-0.000051,0.000132,-0.000216,8.719377,21.152409,5.257047,972.322831,15,0,stopped,,,,
2026-06-18 23:43:25.675,50,0.041078,0.160332,9.771637,334.689545,,,,,,,-0.000110,0.000083,-0.000145,8.719231,21.149203,5.253213,972.322757,15,0,stopped,,,,
2026-06-18 23:43:25.725,50,0.041064,0.160359,9.771624,334.690853,,,,,,,-0.000204,0.000005,-0.000030,8.719084,21.145996,5.249380,972.322683,15,0,stopped,,,,
2026-06-18 23:43:25.775,50,0.041051,0.160386,9.771610,334.691815,,,,,,,-0.000250,-0.000033,0.000034,8.718937,21.142791,5.245547,972.322609,15,0,stopped,,,,
2026-06-18 23:43:25.825,50,0.041037,0.160413,9.771597,334.693288,,,,,,,-0.000244,-0.000005,0.000055,8.718791,21.139585,5.241715,972.322535,15,0,stopped,,,,
2026-06-18 23:43:25.875,50,0.041023,0.160440,9.771583,334.694058,,,,,,,-0.000231,0.000054,0.000082,8.718644,21.136380,5.237883,972.322461,15,0,stopped,,,,
2026-06-18 23:43:25.925,50,0.041010,0.160467,9.771570,334.694105,,,,,,,-0.000219,0.000118,0.000099,8.718497,21.133175,5.234051,972.322387,15,0,stopped,,,,
2026-06-18 23:43:25.975,50,0.040996,0.160494,9.771556,334.695453,,,,,,,-0.000205,0.000167,0.000097,8.718350,21.129970,5.230220,972.322313,15,0,stopped,,,,
2026-06-18 23:43:26.025,50,0.040983,0.160521,9.771542,334.696318,,,,,,,-0.000174,0.000207,0.000087,8.718203,21.126765,5.226389,972.322239,15,0,stopped,,,,
2026-06-18 23:43:26.075,50,0.040969,0.160548,9.771529,334.696853,,,,,,,-0.000136,0.000244,0.000074,8.718056,21.123561,5.222558,972.322165,15,0,stopped,,,,
2026-06-18 23:43:26.125,50,0.040955,0.160575,9.771515,334.696057,,,,,,,-0.000136,0.000244,0.000074,8.717909,21.120358,5.218728,972.322091,15,0,stopped,,,,
2026-06-18 23:43:26.175,50,0.040942,0.160602,9.771501,334.696137,,,,,,,-0.000136,0.000244,0.000074,8.717762,21.117155,5.214899,972.322017,15,0,stopped,,,,
2026-06-18 23:43:26.225,50,0.040928,0.160629,9.771488,334.696345,,,,,,,-0.000136,0.000244,0.000074,8.717614,21.113952,5.211070,972.321943,15,0,stopped,,,,
2026-06-18 23:43:26.275,50,0.040915,0.160656,9.771474,334.699553,,,,,,,-0.000136,0.000244,0.000074,8.717467,21.110749,5.207241,972.321869,15,0,stopped,,,,
2026-06-18 23:43:26.325,50,0.040901,0.160683,9.771460,334.701723,,,,,,,-0.000136,0.000244,0.000074,8.717320,21.107547,5.203413,972.321795,15,0,stopped,,,,
2026-06-18 23:43:26.375,50,0.040887,0.160710,9.771447,334.701723,,,,,,,-0.000136,0.000244,0.000074,8.717172,21.104346,5.199586,972.321721,15,0,stopped,,,,
2026-06-18 23:43:26.425,50,0.040874,0.160737,9.771433,334.701723,,,,,,,-0.000136,0.000244,0.000074,8.717025,21.101145,5.195759,972.321647,15,0,stopped,,,,
2026-06-18 23:43:26.475,50,0.040860,0.160764,9.771420,334.701723,,,,,,,-0.000136,0.000244,0.000074,8.716877,21.097944,5.191932,972.321574,15,0,stopped,,,,
2026-06-18 23:43:26.525,50,0.040847,0.160791,9.771406,334.701723,,,,,,,-0.000136,0.000244,0.000074,8.716730,21.094744,5.188107,972.321500,15,0,stopped,,,,
2026-06-18 23:43:26.575,50,0.040833,0.160818,9.771392,334.701723,,,,,,,-0.000136,0.000244,0.000074,8.716582,21.091545,5.184282,972.321426,15,0,stopped,,,,
2026-06-18 23:43:26.625,50,0.040819,0.160845,9.771378,334.701723,,,,,,,-0.000136,0.000244,0.000074,8.716434,21.088346,5.180457,972.321352,15,0,stopped,,,,
2026-06-18 23:43:26.675,50,0.040806,0.160872,9.771365,334.701723,,,,,,,-0.000136,0.000244,0.000074,8.716286,21.085147,5.176633,972.321278,15,0,stopped,,,,
2026-06-18 23:43:26.725,50,0.040792,0.160899,9.771351,334.701723,,,,,,,-0.000136,0.000244,0.000074,8.716139,21.081950,5.172810,972.321204,15,0,stopped,,,,
2026-06-18 23:43:26.775,50,0.040779,0.160926,9.771337,334.701723,,,,,,,-0.000136,0.000244,0.000074,8.715991,21.078753,5.168988,972.321130,15,0,stopped,,,,
2026-06-18 23:43:26.825,50,0.040765,0.160954,9.771324,334.701723,,,,,,,-0.000136,0.000244,0.000074,8.715843,21.075556,5.165166,972.321056,15,0,stopped,,,,
2026-06-18 23:43:26.875,50,0.040752,0.160981,9.771310,334.701723,,,,,,,-0.000136,0.000244,0.000074,8.715695,21.072360,5.161346,972.320983,15,0,stopped,,,,
2026-06-18 23:43:26.925,50,0.040738,0.161008,9.771296,334.701723,,,,,,,-0.000136,0.000244,0.000074,8.715547,21.069165,5.157526,972.320909,15,0,stopped,,,,
2026-06-18 23:43:26.975,50,0.040724,0.161035,9.771283,334.701723,,,,,,,-0.000136,0.000244,0.000074,8.715399,21.065970,5.153706,972.320835,15,0,stopped,,,,
2026-06-18 23:43:27.025,50,0.040711,0.161062,9.771269,334.701723,,,,,,,-0.000136,0.000244,0.000074,8.715250,21.062776,5.149888,972.320761,15,0,stopped,,,,
2026-06-18 23:43:27.075,50,0.040697,0.161089,9.771255,334.701723,,,,,,,-0.000136,0.000244,0.000074,8.715102,21.059583,5.146070,972.320687,15,0,stopped,,,,
2026-06-18 23:43:27.125,50,0.040684,0.161116,9.771241,334.701723,,,,,,,-0.000136,0.000244,0.000074,8.714954,21.056391,5.142254,972.320614,15,0,stopped,,,,
2026-06-18 23:43:27.175,50,0.040670,0.161144,9.771228,334.701723,,,,,,,-0.000136,0.000244,0.000074,8.714805,21.053199,5.138438,972.320540,15,0,stopped,,,,
2026-06-18 23:43:27.225,50,0.040657,0.161171,9.771214,334.701723,,,,,,,-0.000136,0.000244,0.000074,8.714657,21.050008,5.134623,972.320466,15,0,stopped,,,,
2026-06-18 23:43:27.275,50,0.040643,0.161198,9.771200,334.701723,,,,,,,-0.000136,0.000244,0.000074,8.714509,21.046818,5.130809,972.320393,15,0,stopped,,,,
2026-06-18 23:43:27.325,50,0.040629,0.161225,9.771186,334.701723,,,,,,,-0.000136,0.000244,0.000074,8.714360,21.043628,5.126996,972.320319,15,0,stopped,,,,
2026-06-18 23:43:27.375,50,0.040616,0.161253,9.771173,334.701723,,,,,,,-0.000136,0.000244,0.000074,8.714212,21.040440,5.123184,972.320245,15,0,stopped,,,,
2026-06-18 23:43:27.425,50,0.040602,0.161280,9.771159,334.701723,,,,,,,-0.000136,0.000244,0.000074,8.714063,21.037252,5.119373,972.320172,15,0,stopped,,,,
2026-06-18 23:43:27.475,50,0.040589,0.161307,9.771145,334.701723,,,,,,,-0.000136,0.000244,0.000074,8.713914,21.034065,5.115563,972.320098,15,0,stopped,,,,
2026-06-18 23:43:27.525,50,0.040575,0.161334,9.771131,334.701723,,,,,,,-0.000136,0.000244,0.000074,8.713766,21.030879,5.111754,972.320025,15,0,stopped,,,,
2026-06-18 23:43:27.575,50,0.040562,0.161362,9.771118,334.701723,,,,,,,-0.000136,0.000244,0.000074,8.713617,21.027694,5.107946,972.319951,15,0,stopped,,,,
2026-06-18 23:43:27.625,50,0.040548,0.161389,9.771104,334.701723,,,,,,,-0.000136,0.000244,0.000074,8.713468,21.024510,5.104139,972.319877,15,0,stopped,,,,
2026-06-18 23:43:27.675,50,0.040535,0.161416,9.771090,334.701723,,,,,,,-0.000136,0.000244,0.000074,8.713319,21.021327,5.100334,972.319804,15,0,stopped,,,,
2026-06-18 23:43:27.725,50,0.040521,0.161443,9.771076,334.701723,,,,,,,-0.000136,0.000244,0.000074,8.713170,21.018144,5.096529,972.319730,15,0,stopped,,,,
2026-06-18 23:43:27.775,50,0.040508,0.161471,9.771062,334.701723,,,,,,,-0.000136,0.000244,0.000074,8.713021,21.014963,5.092725,972.319657,15,0,stopped,,,,
2026-06-18 23:43:27.825,50,0.040494,0.161498,9.771049,334.701723,,,,,,,-0.000136,0.000244,0.000074,8.712872,21.011782,5.088923,972.319583,15,0,stopped,,,,
2026-06-18 23:43:27.875,50,0.040481,0.161525,9.771035,334.701723,,,,,,,-0.000136,0.000244,0.000074,8.712723,21.008603,5.085122,972.319510,15,0,stopped,,,,
2026-06-18 23:43:27.925,50,0.040467,0.161553,9.771021,334.701723,,,,,,,-0.000136,0.000244,0.000074,8.712574,21.005424,5.081322,972.319437,15,0,stopped,,,,
2026-06-18 23:43:27.975,50,0.040454,0.161580,9.771007,334.701723,,,,,,,-0.000136,0.000244,0.000074,8.712425,21.002247,5.077523,972.319363,15,0,stopped,,,,
2026-06-18 23:43:28.025,50,0.040440,0.161607,9.770993,334.701723,,,,,,,-0.000136,0.000244,0.000074,8.712276,20.999071,5.073726,972.319290,15,0,stopped,,,,
2026-06-18 23:43:28.075,50,0.040427,0.161635,9.770980,334.701723,,,,,,,-0.000136,0.000244,0.000074,8.712127,20.995895,5.069930,972.319216,15,0,stopped,,,,
2026-06-18 23:43:28.125,50,0.040413,0.161662,9.770966,334.701723,,,,,,,-0.000136,0.000244,0.000074,8.711977,20.992721,5.066135,972.319143,15,0,stopped,,,,
2026-06-18 23:43:28.175,50,0.040400,0.161690,9.770952,334.701723,,,,,,,-0.000136,0.000244,0.000074,8.711828,20.989548,5.062341,972.319070,15,0,stopped,,,,
2026-06-18 23:43:28.225,50,0.040386,0.161717,9.770938,334.701723,,,,,,,-0.000136,0.000244,0.000074,8.711679,20.986376,5.058549,972.318997,15,0,stopped,,,,
2026-06-18 23:43:28.275,50,0.040373,0.161744,9.770924,334.701723,,,,,,,-0.000136,0.000244,0.000074,8.711529,20.983205,5.054758,972.318923,15,0,stopped,,,,
2026-06-18 23:43:28.325,50,0.040359,0.161772,9.770910,334.701723,,,,,,,-0.000136,0.000244,0.000074,8.711380,20.980035,5.050968,972.318850,15,0,stopped,,,,
2026-06-18 23:43:28.375,50,0.040346,0.161799,9.770897,334.701723,,,,,,,-0.000136,0.000244,0.000074,8.711231,20.976867,5.047180,972.318777,15,0,stopped,,,,
2026-06-18 23:43:28.425,50,0.040332,0.161827,9.770883,334.701723,,,,,,,-0.000136,0.000244,0.000074,8.711081,20.973699,5.043393,972.318704,15,0,stopped,,,,
2026-06-18 23:43:28.475,50,0.040319,0.161854,9.770869,334.701723,,,,,,,-0.000136,0.000244,0.000074,8.710931,20.970533,5.039608,972.318631,15,0,stopped,,,,
2026-06-18 23:43:28.525,50,0.040305,0.161881,9.770855,334.701723,,,,,,,-0.000136,0.000244,0.000074,8.710782,20.967368,5.035824,972.318558,15,0,stopped,,,,
2026-06-18 23:43:28.575,50,0.040292,0.161909,9.770841,334.701723,,,,,,,-0.000136,0.000244,0.000074,8.710632,20.964204,5.032042,972.318484,15,0,stopped,,,,
2026-06-18 23:43:28.625,50,0.040279,0.161936,9.770827,334.701723,,,,,,,-0.000136,0.000244,0.000074,8.710483,20.961042,5.028261,972.318411,15,0,stopped,,,,
2026-06-18 23:43:28.675,50,0.040265,0.161964,9.770813,334.701723,,,,,,,-0.000136,0.000244,0.000074,8.710333,20.957880,5.024482,972.318338,15,0,stopped,,,,
2026-06-18 23:43:28.725,50,0.040252,0.161991,9.770800,334.701723,,,,,,,-0.000136,0.000244,0.000074,8.710183,20.954720,5.020704,972.318265,15,0,stopped,,,,
2026-06-18 23:43:28.775,50,0.040238,0.162019,9.770786,334.701723,,,,,,,-0.000136,0.000244,0.000074,8.710033,20.951562,5.016927,972.318192,15,0,stopped,,,,
2026-06-18 23:43:28.825,50,0.040225,0.162046,9.770772,334.701723,,,,,,,-0.000136,0.000244,0.000074,8.709883,20.948404,5.013153,972.318120,15,0,stopped,,,,
2026-06-18 23:43:28.875,50,0.040211,0.162074,9.770758,334.701723,,,,,,,-0.000136,0.000244,0.000074,8.709734,20.945248,5.009380,972.318047,15,0,stopped,,,,
2026-06-18 23:43:28.925,50,0.040198,0.162101,9.770744,334.701723,,,,,,,-0.000136,0.000244,0.000074,8.709584,20.942094,5.005608,972.317974,15,0,stopped,,,,
2026-06-18 23:43:28.975,50,0.040185,0.162129,9.770730,334.701723,,,,,,,-0.000136,0.000244,0.000074,8.709434,20.938940,5.001838,972.317901,15,0,stopped,,,,
2026-06-18 23:43:29.025,50,0.040171,0.162156,9.770716,334.701723,,,,,,,-0.000136,0.000244,0.000074,8.709284,20.935788,4.998070,972.317828,15,0,stopped,,,,
2026-06-18 23:43:29.075,50,0.040158,0.162184,9.770702,334.701723,,,,,,,-0.000136,0.000244,0.000074,8.709134,20.932638,4.994304,972.317755,15,0,stopped,,,,
2026-06-18 23:43:29.125,50,0.040145,0.162211,9.770689,334.701723,,,,,,,-0.000136,0.000244,0.000074,8.708984,20.929489,4.990539,972.317683,15,0,stopped,,,,
2026-06-18 23:43:29.175,50,0.040131,0.162239,9.770675,334.701723,,,,,,,-0.000136,0.000244,0.000074,8.708834,20.926341,4.986776,972.317610,15,0,stopped,,,,
2026-06-18 23:43:29.225,50,0.040118,0.162266,9.770661,334.701723,,,,,,,-0.000136,0.000244,0.000074,8.708684,20.923195,4.983014,972.317537,15,0,stopped,,,,
2026-06-18 23:43:29.275,50,0.040104,0.162294,9.770647,334.701723,,,,,,,-0.000136,0.000244,0.000074,8.708533,20.920051,4.979255,972.317465,15,0,stopped,,,,
2026-06-18 23:43:29.325,50,0.040091,0.162321,9.770633,334.701723,,,,,,,-0.000136,0.000244,0.000074,8.708383,20.916907,4.975497,972.317392,15,0,stopped,,,,
2026-06-18 23:43:29.375,50,0.040078,0.162349,9.770619,334.701723,,,,,,,-0.000136,0.000244,0.000074,8.708233,20.913766,4.971741,972.317319,15,0,stopped,,,,
2026-06-18 23:43:29.425,50,0.040064,0.162376,9.770605,334.701723,,,,,,,-0.000136,0.000244,0.000074,8.708083,20.910626,4.967987,972.317247,15,0,stopped,,,,
2026-06-18 23:43:29.475,50,0.040051,0.162404,9.770591,334.701723,,,,,,,-0.000136,0.000244,0.000074,8.707933,20.907487,4.964235,972.317174,15,0,stopped,,,,
2026-06-18 23:43:29.525,50,0.040038,0.162431,9.770577,334.701723,,,,,,,-0.000136,0.000244,0.000074,8.707782,20.904350,4.960485,972.317102,15,0,stopped,,,,
2026-06-18 23:43:29.575,50,0.040024,0.162459,9.770563,334.701723,,,,,,,-0.000136,0.000244,0.000074,8.707632,20.901215,4.956736,972.317030,15,0,stopped,,,,
2026-06-18 23:43:29.625,50,0.040011,0.162487,9.770549,334.701723,,,,,,,-0.000136,0.000244,0.000074,8.707482,20.898081,4.952989,972.316957,15,0,stopped,,,,
2026-06-18 23:43:29.675,50,0.039998,0.162514,9.770536,334.701723,,,,,,,-0.000136,0.000244,0.000074,8.707331,20.894949,4.949245,972.316885,15,0,stopped,,,,
2026-06-18 23:43:29.725,50,0.039984,0.162542,9.770522,334.701723,,,,,,,-0.000136,0.000244,0.000074,8.707181,20.891818,4.945502,972.316812,15,0,stopped,,,,
2026-06-18 23:43:29.775,50,0.039971,0.162569,9.770508,334.701723,,,,,,,-0.000136,0.000244,0.000074,8.707030,20.888689,4.941761,972.316740,15,0,stopped,,,,
2026-06-18 23:43:29.825,50,0.039958,0.162597,9.770494,334.701723,,,,,,,-0.000136,0.000244,0.000074,8.706880,20.885562,4.938023,972.316668,15,0,stopped,,,,
2026-06-18 23:43:29.875,50,0.039945,0.162624,9.770480,334.701723,,,,,,,-0.000136,0.000244,0.000074,8.706729,20.882436,4.934286,972.316596,15,0,stopped,,,,
2026-06-18 23:43:29.925,50,0.039931,0.162652,9.770466,334.701723,,,,,,,-0.000136,0.000244,0.000074,8.706579,20.879313,4.930551,972.316524,15,0,stopped,,,,
2026-06-18 23:43:29.975,50,0.039918,0.162680,9.770452,334.701723,,,,,,,-0.000136,0.000244,0.000074,8.706428,20.876190,4.926819,972.316452,15,0,stopped,,,,
2026-06-18 23:43:30.025,50,0.039905,0.162707,9.770438,334.701723,,,,,,,-0.000136,0.000244,0.000074,8.706278,20.873070,4.923088,972.316379,15,0,stopped,,,,
2026-06-18 23:43:30.075,50,0.039892,0.162735,9.770424,334.701723,,,,,,,-0.000136,0.000244,0.000074,8.706127,20.869951,4.919360,972.316307,15,0,stopped,,,,
2026-06-18 23:43:30.125,50,0.039878,0.162762,9.770410,334.701723,,,,,,,-0.000136,0.000244,0.000074,8.705976,20.866835,4.915634,972.316235,15,0,stopped,,,,
2026-06-18 23:43:30.175,50,0.039865,0.162790,9.770396,334.701723,,,,,,,-0.000136,0.000244,0.000074,8.705826,20.863720,4.911910,972.316163,15,0,stopped,,,,
2026-06-18 23:43:30.225,50,0.039852,0.162818,9.770382,334.701723,,,,,,,-0.000136,0.000244,0.000074,8.705675,20.860606,4.908188,972.316092,15,0,stopped,,,,
2026-06-18 23:43:30.275,50,0.039839,0.162845,9.770368,334.701723,,,,,,,-0.000136,0.000244,0.000074,8.705524,20.857495,4.904468,972.316020,15,0,stopped,,,,
2026-06-18 23:43:30.325,50,0.039825,0.162873,9.770354,334.701723,,,,,,,-0.000136,0.000244,0.000074,8.705374,20.854385,4.900750,972.315948,15,0,stopped,,,,
2026-06-18 23:43:30.375,50,0.039812,0.162901,9.770340,334.701723,,,,,,,-0.000136,0.000244,0.000074,8.705223,20.851278,4.897035,972.315876,15,0,stopped,,,,
2026-06-18 23:43:30.425,50,0.039799,0.162928,9.770326,334.701723,,,,,,,-0.000136,0.000244,0.000074,8.705072,20.848172,4.893322,972.315804,15,0,stopped,,,,
2026-06-18 23:43:30.475,50,0.039786,0.162956,9.770312,334.701723,,,,,,,-0.000136,0.000244,0.000074,8.704921,20.845068,4.889611,972.315733,15,0,stopped,,,,
2026-06-18 23:43:30.525,50,0.039773,0.162984,9.770298,334.701723,,,,,,,-0.000136,0.000244,0.000074,8.704771,20.841966,4.885903,972.315661,15,0,stopped,,,,
2026-06-18 23:43:30.575,50,0.039759,0.163011,9.770284,334.701723,,,,,,,-0.000136,0.000244,0.000074,8.704620,20.838866,4.882196,972.315589,15,0,stopped,,,,
2026-06-18 23:43:30.625,50,0.039746,0.163039,9.770270,334.701723,,,,,,,-0.000136,0.000244,0.000074,8.704469,20.835768,4.878493,972.315518,15,0,stopped,,,,
2026-06-18 23:43:30.675,50,0.039733,0.163067,9.770257,334.701723,,,,,,,-0.000136,0.000244,0.000074,8.704318,20.832672,4.874791,972.315446,15,0,stopped,,,,
2026-06-18 23:43:30.725,50,0.039720,0.163094,9.770243,334.701723,,,,,,,-0.000136,0.000244,0.000074,8.704167,20.829578,4.871092,972.315375,15,0,stopped,,,,
2026-06-18 23:43:30.775,50,0.039707,0.163122,9.770229,334.701723,,,,,,,-0.000136,0.000244,0.000074,8.704016,20.826486,4.867395,972.315303,15,0,stopped,,,,
2026-06-18 23:43:30.825,50,0.039694,0.163150,9.770215,334.701723,,,,,,,-0.000136,0.000244,0.000074,8.703865,20.823395,4.863701,972.315232,15,0,stopped,,,,
2026-06-18 23:43:30.875,50,0.039681,0.163177,9.770201,334.701723,,,,,,,-0.000136,0.000244,0.000074,8.703715,20.820307,4.860009,972.315161,15,0,stopped,,,,
2026-06-18 23:43:30.925,50,0.039668,0.163205,9.770187,334.701723,,,,,,,-0.000136,0.000244,0.000074,8.703564,20.817221,4.856320,972.315089,15,0,stopped,,,,
2026-06-18 23:43:30.975,50,0.039654,0.163233,9.770173,334.701723,,,,,,,-0.000136,0.000244,0.000074,8.703413,20.814137,4.852633,972.315018,15,0,stopped,,,,
2026-06-18 23:43:31.025,50,0.039641,0.163260,9.770159,334.701723,,,,,,,-0.000136,0.000244,0.000074,8.703262,20.811056,4.848948,972.314947,15,0,stopped,,,,
2026-06-18 23:43:31.075,50,0.039628,0.163288,9.770145,334.701723,,,,,,,-0.000136,0.000244,0.000074,8.703111,20.807976,4.845266,972.314876,15,0,stopped,,,,
2026-06-18 23:43:31.125,50,0.039615,0.163316,9.770131,334.701723,,,,,,,-0.000136,0.000244,0.000074,8.702960,20.804898,4.841587,972.314805,15,0,stopped,,,,
2026-06-18 23:43:31.175,50,0.039602,0.163343,9.770117,334.701723,,,,,,,-0.000136,0.000244,0.000074,8.702809,20.801823,4.837910,972.314734,15,0,stopped,,,,
2026-06-18 23:43:31.225,50,0.039589,0.163371,9.770103,334.701723,,,,,,,-0.000136,0.000244,0.000074,8.702658,20.798750,4.834236,972.314663,15,0,stopped,,,,
2026-06-18 23:43:31.275,50,0.039576,0.163399,9.770089,334.701723,,,,,,,-0.000136,0.000244,0.000074,8.702507,20.795678,4.830564,972.314592,15,0,stopped,,,,
2026-06-18 23:43:31.325,50,0.039563,0.163426,9.770075,334.701723,,,,,,,-0.000136,0.000244,0.000074,8.702355,20.792609,4.826895,972.314521,15,0,stopped,,,,
2026-06-18 23:43:31.375,50,0.039550,0.163454,9.770061,334.701723,,,,,,,-0.000136,0.000244,0.000074,8.702204,20.789543,4.823229,972.314450,15,0,stopped,,,,
2026-06-18 23:43:31.425,50,0.039537,0.163482,9.770047,334.701723,,,,,,,-0.000136,0.000244,0.000074,8.702053,20.786478,4.819565,972.314379,15,0,stopped,,,,
2026-06-18 23:43:31.475,50,0.039524,0.163510,9.770033,334.701723,,,,,,,-0.000136,0.000244,0.000074,8.701902,20.783416,4.815904,972.314308,15,0,stopped,,,,
2026-06-18 23:43:31.525,50,0.039511,0.163537,9.770019,334.701723,,,,,,,-0.000136,0.000244,0.000074,8.701751,20.780356,4.812246,972.314238,15,0,stopped,,,,
2026-06-18 23:43:31.575,50,0.039498,0.163565,9.770005,334.701723,,,,,,,-0.000136,0.000244,0.000074,8.701600,20.777298,4.808590,972.314167,15,0,stopped,,,,
2026-06-18 23:43:31.625,50,0.039485,0.163593,9.769991,334.701723,,,,,,,-0.000136,0.000244,0.000074,8.701449,20.774243,4.804938,972.314096,15,0,stopped,,,,
2026-06-18 23:43:31.675,50,0.039472,0.163620,9.769977,334.701723,,,,,,,-0.000136,0.000244,0.000074,8.701298,20.771190,4.801288,972.314026,15,0,stopped,,,,
2026-06-18 23:43:31.725,50,0.039459,0.163648,9.769963,334.701723,,,,,,,-0.000136,0.000244,0.000074,8.701147,20.768139,4.797640,972.313955,15,0,stopped,,,,
2026-06-18 23:43:31.775,50,0.039446,0.163676,9.769949,334.701723,,,,,,,-0.000136,0.000244,0.000074,8.700995,20.765091,4.793996,972.313885,15,0,stopped,,,,
2026-06-18 23:43:31.825,50,0.039433,0.163703,9.769935,334.701723,,,,,,,-0.000136,0.000244,0.000074,8.700844,20.762045,4.790354,972.313815,15,0,stopped,,,,
2026-06-18 23:43:31.875,50,0.039420,0.163731,9.769921,334.701723,,,,,,,-0.000136,0.000244,0.000074,8.700693,20.759001,4.786716,972.313744,15,0,stopped,,,,
2026-06-18 23:43:31.925,50,0.039407,0.163759,9.769907,334.701723,,,,,,,-0.000136,0.000244,0.000074,8.700542,20.755960,4.783080,972.313674,15,0,stopped,,,,
2026-06-18 23:43:31.975,50,0.039394,0.163787,9.769893,334.701723,,,,,,,-0.000136,0.000244,0.000074,8.700391,20.752922,4.779447,972.313604,15,0,stopped,,,,
2026-06-18 23:43:32.025,50,0.039381,0.163814,9.769879,334.701723,,,,,,,-0.000136,0.000244,0.000074,8.700240,20.749885,4.775817,972.313534,15,0,stopped,,,,
2026-06-18 23:43:32.075,50,0.039369,0.163842,9.769865,334.701723,,,,,,,-0.000136,0.000244,0.000074,8.700088,20.746851,4.772190,972.313464,15,0,stopped,,,,
2026-06-18 23:43:32.125,50,0.039356,0.163870,9.769851,334.701723,,,,,,,-0.000136,0.000244,0.000074,8.699937,20.743820,4.768566,972.313394,15,0,stopped,,,,
2026-06-18 23:43:32.175,50,0.039343,0.163898,9.769837,334.701723,,,,,,,-0.000136,0.000244,0.000074,8.699786,20.740791,4.764945,972.313324,15,0,stopped,,,,
2026-06-18 23:43:32.225,50,0.039330,0.163925,9.769823,334.701723,,,,,,,-0.000136,0.000244,0.000074,8.699635,20.737765,4.761327,972.313254,15,0,stopped,,,,
2026-06-18 23:43:32.275,50,0.039317,0.163953,9.769809,334.701723,,,,,,,-0.000136,0.000244,0.000074,8.699484,20.734741,4.757712,972.313184,15,0,stopped,,,,
2026-06-18 23:43:32.325,50,0.039304,0.163981,9.769795,334.701723,,,,,,,-0.000136,0.000244,0.000074,8.699332,20.731720,4.754100,972.313114,15,0,stopped,,,,
2026-06-18 23:43:32.375,50,0.039291,0.164008,9.769781,334.701723,,,,,,,-0.000136,0.000244,0.000074,8.699181,20.728701,4.750491,972.313044,15,0,stopped,,,,
2026-06-18 23:43:32.425,50,0.039279,0.164036,9.769767,334.701723,,,,,,,-0.000136,0.000244,0.000074,8.699030,20.725685,4.746885,972.312975,15,0,stopped,,,,
2026-06-18 23:43:32.475,50,0.039266,0.164064,9.769753,334.701723,,,,,,,-0.000136,0.000244,0.000074,8.698879,20.722671,4.743282,972.312905,15,0,stopped,,,,
2026-06-18 23:43:32.525,50,0.039253,0.164092,9.769739,334.701723,,,,,,,-0.000136,0.000244,0.000074,8.698727,20.719660,4.739682,972.312836,15,0,stopped,,,,
2026-06-18 23:43:32.575,50,0.039240,0.164119,9.769725,334.701723,,,,,,,-0.000136,0.000244,0.000074,8.698576,20.716652,4.736086,972.312766,15,0,stopped,,,,
2026-06-18 23:43:32.625,50,0.039227,0.164147,9.769711,334.701723,,,,,,,-0.000136,0.000244,0.000074,8.698425,20.713646,4.732492,972.312697,15,0,stopped,,,,
2026-06-18 23:43:32.675,50,0.039215,0.164175,9.769697,334.701723,,,,,,,-0.000136,0.000244,0.000074,8.698274,20.710643,4.728902,972.312627,15,0,stopped,,,,
2026-06-18 23:43:32.725,50,0.039202,0.164202,9.769683,334.701723,,,,,,,-0.000136,0.000244,0.000074,8.698123,20.707643,4.725315,972.312558,15,0,stopped,,,,
2026-06-18 23:43:32.775,50,0.039189,0.164230,9.769669,334.701723,,,,,,,-0.000136,0.000244,0.000074,8.697971,20.704646,4.721732,972.312489,15,0,stopped,,,,
2026-06-18 23:43:32.825,50,0.039177,0.164258,9.769655,334.701723,,,,,,,-0.000136,0.000244,0.000074,8.697820,20.701651,4.718151,972.312419,15,0,stopped,,,,
2026-06-18 23:43:32.875,50,0.039164,0.164286,9.769641,334.701723,,,,,,,-0.000136,0.000244,0.000074,8.697669,20.698659,4.714574,972.312350,15,0,stopped,,,,
2026-06-18 23:43:32.925,50,0.039151,0.164313,9.769627,334.701723,,,,,,,-0.000136,0.000244,0.000074,8.697518,20.695669,4.711000,972.312281,15,0,stopped,,,,
2026-06-18 23:43:32.975,50,0.039138,0.164341,9.769613,334.701723,,,,,,,-0.000136,0.000244,0.000074,8.697367,20.692683,4.707430,972.312212,15,0,stopped,,,,
2026-06-18 23:43:33.025,50,0.039126,0.164369,9.769599,334.701723,,,,,,,-0.000136,0.000244,0.000074,8.697215,20.689699,4.703863,972.312143,15,0,stopped,,,,
2026-06-18 23:43:33.075,50,0.039113,0.164397,9.769585,334.701723,,,,,,,-0.000136,0.000244,0.000074,8.697064,20.686718,4.700299,972.312074,15,0,stopped,,,,
2026-06-18 23:43:33.125,50,0.039100,0.164424,9.769571,334.701723,,,,,,,-0.000136,0.000244,0.000074,8.696913,20.683740,4.696738,972.312006,15,0,stopped,,,,
2026-06-18 23:43:33.175,50,0.039088,0.164452,9.769557,334.701723,,,,,,,-0.000136,0.000244,0.000074,8.696762,20.680765,4.693181,972.311937,15,0,stopped,,,,
2026-06-18 23:43:33.225,50,0.039075,0.164480,9.769543,334.701723,,,,,,,-0.000136,0.000244,0.000074,8.696611,20.677792,4.689628,972.311868,15,0,stopped,,,,
2026-06-18 23:43:33.275,50,0.039063,0.164507,9.769529,334.701723,,,,,,,-0.000136,0.000244,0.000074,8.696459,20.674823,4.686078,972.311800,15,0,stopped,,,,
2026-06-18 23:43:33.325,50,0.039050,0.164535,9.769515,334.701723,,,,,,,-0.000136,0.000244,0.000074,8.696308,20.671856,4.682531,972.311731,15,0,stopped,,,,
2026-06-18 23:43:33.375,50,0.039037,0.164563,9.769501,334.701723,,,,,,,-0.000136,0.000244,0.000074,8.696157,20.668892,4.678988,972.311663,15,0,stopped,,,,
2026-06-18 23:43:33.425,50,0.039025,0.164591,9.769487,334.701723,,,,,,,-0.000136,0.000244,0.000074,8.696006,20.665932,4.675448,972.311594,15,0,stopped,,,,
2026-06-18 23:43:33.475,50,0.039012,0.164618,9.769473,334.701723,,,,,,,-0.000136,0.000244,0.000074,8.695855,20.662974,4.671912,972.311526,15,0,stopped,,,,
2026-06-18 23:43:33.525,50,0.039000,0.164646,9.769459,334.701723,,,,,,,-0.000136,0.000244,0.000074,8.695704,20.660019,4.668379,972.311458,15,0,stopped,,,,
2026-06-18 23:43:33.575,50,0.038987,0.164674,9.769445,334.701723,,,,,,,-0.000136,0.000244,0.000074,8.695553,20.657067,4.664850,972.311389,15,0,stopped,,,,
2026-06-18 23:43:33.625,50,0.038975,0.164701,9.769431,334.701723,,,,,,,-0.000136,0.000244,0.000074,8.695401,20.654118,4.661324,972.311321,15,0,stopped,,,,
2026-06-18 23:43:33.675,50,0.038962,0.164729,9.769417,334.701723,,,,,,,-0.000136,0.000244,0.000074,8.695250,20.651172,4.657803,972.311253,15,0,stopped,,,,
2026-06-18 23:43:33.725,50,0.038950,0.164757,9.769403,334.701723,,,,,,,-0.000136,0.000244,0.000074,8.695099,20.648229,4.654284,972.311185,15,0,stopped,,,,
2026-06-18 23:43:33.775,50,0.038937,0.164785,9.769389,334.701723,,,,,,,-0.000136,0.000244,0.000074,8.694948,20.645290,4.650770,972.311117,15,0,stopped,,,,
2026-06-18 23:43:33.825,50,0.038925,0.164812,9.769375,334.701723,,,,,,,-0.000136,0.000244,0.000074,8.694797,20.642353,4.647259,972.311049,15,0,stopped,,,,
2026-06-18 23:43:33.875,50,0.038912,0.164840,9.769361,334.701723,,,,,,,-0.000136,0.000244,0.000074,8.694646,20.639419,4.643752,972.310982,15,0,stopped,,,,
2026-06-18 23:43:33.925,50,0.038900,0.164868,9.769347,334.701723,,,,,,,-0.000136,0.000244,0.000074,8.694495,20.636489,4.640248,972.310914,15,0,stopped,,,,
2026-06-18 23:43:33.975,50,0.038887,0.164895,9.769333,334.701723,,,,,,,-0.000136,0.000244,0.000074,8.694344,20.633561,4.636748,972.310846,15,0,stopped,,,,
2026-06-18 23:43:34.025,50,0.038875,0.164923,9.769319,334.701723,,,,,,,-0.000136,0.000244,0.000074,8.694193,20.630637,4.633252,972.310779,15,0,stopped,,,,
2026-06-18 23:43:34.075,50,0.038862,0.164951,9.769305,334.701723,,,,,,,-0.000136,0.000244,0.000074,8.694042,20.627716,4.629760,972.310711,15,0,stopped,,,,
2026-06-18 23:43:34.125,50,0.038850,0.164978,9.769291,334.701723,,,,,,,-0.000136,0.000244,0.000074,8.693891,20.624798,4.626272,972.310644,15,0,stopped,,,,
2026-06-18 23:43:34.175,50,0.038838,0.165006,9.769277,334.701723,,,,,,,-0.000136,0.000244,0.000074,8.693740,20.621884,4.622787,972.310576,15,0,stopped,,,,
2026-06-18 23:43:34.225,50,0.038825,0.165034,9.769263,334.701723,,,,,,,-0.000136,0.000244,0.000074,8.693589,20.618972,4.619306,972.310509,15,0,stopped,,,,
2026-06-18 23:43:34.275,50,0.038813,0.165061,9.769249,334.701723,,,,,,,-0.000136,0.000244,0.000074,8.693438,20.616064,4.615830,972.310442,15,0,stopped,,,,
2026-06-18 23:43:34.325,50,0.038801,0.165089,9.769235,334.701723,,,,,,,-0.000136,0.000244,0.000074,8.693287,20.613159,4.612357,972.310375,15,0,stopped,,,,
2026-06-18 23:43:34.375,50,0.038788,0.165117,9.769221,334.701723,,,,,,,-0.000136,0.000244,0.000074,8.693136,20.610257,4.608888,972.310308,15,0,stopped,,,,
2026-06-18 23:43:34.425,50,0.038776,0.165144,9.769207,334.701723,,,,,,,-0.000136,0.000244,0.000074,8.692985,20.607359,4.605422,972.310241,15,0,stopped,,,,
2026-06-18 23:43:34.475,50,0.038764,0.165172,9.769193,334.701723,,,,,,,-0.000136,0.000244,0.000074,8.692835,20.604464,4.601961,972.310174,15,0,stopped,,,,
2026-06-18 23:43:34.525,50,0.038751,0.165200,9.769179,334.701723,,,,,,,-0.000136,0.000244,0.000074,8.692684,20.601572,4.598504,972.310107,15,0,stopped,,,,
2026-06-18 23:43:34.575,50,0.038739,0.165227,9.769165,334.701723,,,,,,,-0.000136,0.000244,0.000074,8.692533,20.598683,4.595051,972.310040,15,0,stopped,,,,
2026-06-18 23:43:34.625,50,0.038727,0.165255,9.769151,334.701723,,,,,,,-0.000136,0.000244,0.000074,8.692382,20.595798,4.591601,972.309974,15,0,stopped,,,,
2026-06-18 23:43:34.675,50,0.038715,0.165283,9.769137,334.701723,,,,,,,-0.000136,0.000244,0.000074,8.692231,20.592916,4.588156,972.309907,15,0,stopped,,,,
2026-06-18 23:43:34.725,50,0.038702,0.165310,9.769123,334.701723,,,,,,,-0.000136,0.000244,0.000074,8.692080,20.590038,4.584715,972.309841,15,0,stopped,,,,
2026-06-18 23:43:34.775,50,0.038690,0.165338,9.769109,334.701723,,,,,,,-0.000136,0.000244,0.000074,8.691930,20.587163,4.581278,972.309774,15,0,stopped,,,,
2026-06-18 23:43:34.825,50,0.038678,0.165366,9.769095,334.701723,,,,,,,-0.000136,0.000244,0.000074,8.691779,20.584292,4.577845,972.309708,15,0,stopped,,,,
2026-06-18 23:43:34.875,50,0.038666,0.165393,9.769081,334.701723,,,,,,,-0.000136,0.000244,0.000074,8.691628,20.581424,4.574416,972.309642,15,0,stopped,,,,
2026-06-18 23:43:34.925,50,0.038654,0.165421,9.769067,334.701723,,,,,,,-0.000136,0.000244,0.000074,8.691478,20.578559,4.570991,972.309575,15,0,stopped,,,,
2026-06-18 23:43:34.975,50,0.038641,0.165448,9.769054,334.701723,,,,,,,-0.000136,0.000244,0.000074,8.691327,20.575698,4.567571,972.309509,15,0,stopped,,,,
2026-06-18 23:43:35.025,50,0.038629,0.165476,9.769040,334.701723,,,,,,,-0.000136,0.000244,0.000074,8.691176,20.572840,4.564154,972.309443,15,0,stopped,,,,
2026-06-18 23:43:35.075,50,0.038617,0.165504,9.769026,334.701723,,,,,,,-0.000136,0.000244,0.000074,8.691026,20.569986,4.560742,972.309377,15,0,stopped,,,,
2026-06-18 23:43:35.125,50,0.038605,0.165531,9.769012,334.701723,,,,,,,-0.000136,0.000244,0.000074,8.690875,20.567135,4.557334,972.309311,15,0,stopped,,,,
2026-06-18 23:43:35.175,50,0.038593,0.165559,9.768998,334.701723,,,,,,,-0.000136,0.000244,0.000074,8.690724,20.564288,4.553930,972.309246,15,0,stopped,,,,
2026-06-18 23:43:35.225,50,0.038581,0.165587,9.768984,334.701723,,,,,,,-0.000136,0.000244,0.000074,8.690574,20.561445,4.550531,972.309180,15,0,stopped,,,,
2026-06-18 23:43:35.275,50,0.038569,0.165614,9.768970,334.701723,,,,,,,-0.000136,0.000244,0.000074,8.690423,20.558605,4.547135,972.309114,15,0,stopped,,,,
2026-06-18 23:43:35.325,50,0.038557,0.165642,9.768956,334.701723,,,,,,,-0.000136,0.000244,0.000074,8.690273,20.555768,4.543745,972.309049,15,0,stopped,,,,
2026-06-18 23:43:35.375,50,0.038545,0.165669,9.768942,334.701723,,,,,,,-0.000136,0.000244,0.000074,8.690122,20.552936,4.540358,972.308983,15,0,stopped,,,,
2026-06-18 23:43:35.425,50,0.038533,0.165697,9.768928,334.701723,,,,,,,-0.000136,0.000244,0.000074,8.689972,20.550107,4.536976,972.308918,15,0,stopped,,,,
2026-06-18 23:43:35.475,50,0.038521,0.165724,9.768914,334.701723,,,,,,,-0.000136,0.000244,0.000074,8.689822,20.547281,4.533598,972.308853,15,0,stopped,,,,
2026-06-18 23:43:35.525,50,0.038509,0.165752,9.768900,334.701723,,,,,,,-0.000136,0.000244,0.000074,8.689671,20.544460,4.530224,972.308788,15,0,stopped,,,,
2026-06-18 23:43:35.575,50,0.038497,0.165780,9.768886,334.701723,,,,,,,-0.000136,0.000244,0.000074,8.689521,20.541641,4.526855,972.308722,15,0,stopped,,,,
2026-06-18 23:43:35.625,50,0.038485,0.165807,9.768872,334.701723,,,,,,,-0.000136,0.000244,0.000074,8.689371,20.538827,4.523491,972.308657,15,0,stopped,,,,
2026-06-18 23:43:35.675,50,0.038473,0.165835,9.768858,334.701723,,,,,,,-0.000136,0.000244,0.000074,8.689220,20.536016,4.520130,972.308592,15,0,stopped,,,,
2026-06-18 23:43:35.725,50,0.038461,0.165862,9.768845,334.701723,,,,,,,-0.000136,0.000244,0.000074,8.689070,20.533210,4.516775,972.308528,15,0,stopped,,,,
2026-06-18 23:43:35.775,50,0.038449,0.165890,9.768831,334.701723,,,,,,,-0.000136,0.000244,0.000074,8.688920,20.530406,4.513423,972.308463,15,0,stopped,,,,
2026-06-18 23:43:35.825,50,0.038437,0.165917,9.768817,334.701723,,,,,,,-0.000136,0.000244,0.000074,8.688770,20.527607,4.510077,972.308398,15,0,stopped,,,,
2026-06-18 23:43:35.875,50,0.038425,0.165945,9.768803,334.701723,,,,,,,-0.000136,0.000244,0.000074,8.688619,20.524811,4.506734,972.308333,15,0,stopped,,,,
2026-06-18 23:43:35.925,50,0.038413,0.165972,9.768789,334.701723,,,,,,,-0.000136,0.000244,0.000074,8.688469,20.522020,4.503397,972.308269,15,0,stopped,,,,
2026-06-18 23:43:35.975,50,0.038402,0.166000,9.768775,334.701723,,,,,,,-0.000136,0.000244,0.000074,8.688319,20.519232,4.500064,972.308205,15,0,stopped,,,,
2026-06-18 23:43:36.025,50,0.038390,0.166027,9.768761,334.701723,,,,,,,-0.000136,0.000244,0.000074,8.688169,20.516448,4.496735,972.308140,15,0,stopped,,,,
2026-06-18 23:43:36.075,50,0.038378,0.166055,9.768747,334.701723,,,,,,,-0.000136,0.000244,0.000074,8.688019,20.513667,4.493411,972.308076,15,0,stopped,,,,
2026-06-18 23:43:36.125,50,0.038366,0.166082,9.768733,334.701723,,,,,,,-0.000136,0.000244,0.000074,8.687869,20.510891,4.490092,972.308012,15,0,stopped,,,,
2026-06-18 23:43:36.175,50,0.038354,0.166110,9.768719,334.701723,,,,,,,-0.000136,0.000244,0.000074,8.687719,20.508119,4.486778,972.307948,15,0,stopped,,,,
2026-06-18 23:43:36.225,50,0.038343,0.166137,9.768706,334.701723,,,,,,,-0.000136,0.000244,0.000074,8.687569,20.505350,4.483468,972.307884,15,0,stopped,,,,
2026-06-18 23:43:36.275,50,0.038331,0.166165,9.768692,334.701723,,,,,,,-0.000136,0.000244,0.000074,8.687419,20.502585,4.480163,972.307820,15,0,stopped,,,,
2026-06-18 23:43:36.325,50,0.038319,0.166192,9.768678,334.701723,,,,,,,-0.000136,0.000244,0.000074,8.687270,20.499825,4.476862,972.307756,15,0,stopped,,,,
2026-06-18 23:43:36.375,50,0.038307,0.166220,9.768664,334.701723,,,,,,,-0.000136,0.000244,0.000074,8.687120,20.497068,4.473566,972.307692,15,0,stopped,,,,
2026-06-18 23:43:36.425,50,0.038296,0.166247,9.768650,334.701723,,,,,,,-0.000136,0.000244,0.000074,8.686970,20.494315,4.470275,972.307629,15,0,stopped,,,,
2026-06-18 23:43:36.475,50,0.038284,0.166275,9.768636,334.701723,,,,,,,-0.000136,0.000244,0.000074,8.686820,20.491567,4.466989,972.307565,15,0,stopped,,,,
2026-06-18 23:43:36.525,50,0.038272,0.166302,9.768622,334.701723,,,,,,,-0.000136,0.000244,0.000074,8.686670,20.488822,4.463708,972.307502,15,0,stopped,,,,
2026-06-18 23:43:36.575,50,0.038261,0.166330,9.768608,334.701723,,,,,,,-0.000136,0.000244,0.000074,8.686521,20.486081,4.460431,972.307438,15,0,stopped,,,,
2026-06-18 23:43:36.625,50,0.038249,0.166357,9.768595,334.701723,,,,,,,-0.000136,0.000244,0.000074,8.686371,20.483345,4.457160,972.307375,15,0,stopped,,,,
2026-06-18 23:43:36.675,50,0.038237,0.166385,9.768581,334.701723,,,,,,,-0.000136,0.000244,0.000074,8.686222,20.480612,4.453893,972.307312,15,0,stopped,,,,
2026-06-18 23:43:36.725,50,0.038226,0.166412,9.768567,334.701723,,,,,,,-0.000136,0.000244,0.000074,8.686072,20.477884,4.450631,972.307249,15,0,stopped,,,,
2026-06-18 23:43:36.775,50,0.038214,0.166439,9.768553,334.701723,,,,,,,-0.000136,0.000244,0.000074,8.685923,20.475159,4.447374,972.307186,15,0,stopped,,,,
2026-06-18 23:43:36.825,50,0.038203,0.166467,9.768539,334.701723,,,,,,,-0.000136,0.000244,0.000074,8.685773,20.472439,4.444122,972.307123,15,0,stopped,,,,
2026-06-18 23:43:36.875,50,0.038191,0.166494,9.768525,334.701723,,,,,,,-0.000136,0.000244,0.000074,8.685624,20.469723,4.440875,972.307060,15,0,stopped,,,,
2026-06-18 23:43:36.925,50,0.038180,0.166522,9.768512,334.701723,,,,,,,-0.000136,0.000244,0.000074,8.685474,20.467011,4.437633,972.306998,15,0,stopped,,,,
2026-06-18 23:43:36.975,50,0.038168,0.166549,9.768498,334.701723,,,,,,,-0.000136,0.000244,0.000074,8.685325,20.464304,4.434395,972.306935,15,0,stopped,,,,
2026-06-18 23:43:37.025,50,0.038157,0.166576,9.768484,334.701723,,,,,,,-0.000136,0.000244,0.000074,8.685176,20.461600,4.431163,972.306873,15,0,stopped,,,,
2026-06-18 23:43:37.075,50,0.038145,0.166604,9.768470,334.701723,,,,,,,-0.000136,0.000244,0.000074,8.685026,20.458901,4.427936,972.306810,15,0,stopped,,,,
2026-06-18 23:43:37.125,50,0.038134,0.166631,9.768456,334.701723,,,,,,,-0.000136,0.000244,0.000074,8.684877,20.456206,4.424714,972.306748,15,0,stopped,,,,
2026-06-18 23:43:37.175,50,0.038122,0.166658,9.768442,334.701723,,,,,,,-0.000136,0.000244,0.000074,8.684728,20.453515,4.421497,972.306686,15,0,stopped,,,,
2026-06-18 23:43:37.225,50,0.038111,0.166686,9.768429,334.701723,,,,,,,-0.000136,0.000244,0.000074,8.684579,20.450828,4.418285,972.306624,15,0,stopped,,,,
2026-06-18 23:43:37.275,50,0.038099,0.166713,9.768415,334.701723,,,,,,,-0.000136,0.000244,0.000074,8.684430,20.448146,4.415079,972.306562,15,0,stopped,,,,
2026-06-18 23:43:37.325,50,0.038088,0.166740,9.768401,334.701723,,,,,,,-0.000136,0.000244,0.000074,8.684281,20.445468,4.411877,972.306500,15,0,stopped,,,,
2026-06-18 23:43:37.375,50,0.038077,0.166768,9.768387,334.701723,,,,,,,-0.000136,0.000244,0.000074,8.684132,20.442794,4.408681,972.306438,15,0,stopped,,,,
2026-06-18 23:43:37.425,50,0.038065,0.166795,9.768373,334.701723,,,,,,,-0.000136,0.000244,0.000074,8.683983,20.440125,4.405489,972.306376,15,0,stopped,,,,
2026-06-18 23:43:37.475,50,0.038054,0.166822,9.768360,334.701723,,,,,,,-0.000136,0.000244,0.000074,8.683834,20.437460,4.402303,972.306315,15,0,stopped,,,,
2026-06-18 23:43:37.525,50,0.038043,0.166850,9.768346,334.701723,,,,,,,-0.000136,0.000244,0.000074,8.683685,20.434799,4.399122,972.306253,15,0,stopped,,,,
2026-06-18 23:43:37.575,50,0.038032,0.166877,9.768332,334.701723,,,,,,,-0.000136,0.000244,0.000074,8.683536,20.432143,4.395947,972.306192,15,0,stopped,,,,
2026-06-18 23:43:37.625,50,0.038020,0.166904,9.768318,334.701723,,,,,,,-0.000136,0.000244,0.000074,8.683388,20.429491,4.392776,972.306131,15,0,stopped,,,,
2026-06-18 23:43:37.675,50,0.038009,0.166931,9.768305,334.701723,,,,,,,-0.000136,0.000244,0.000074,8.683239,20.426844,4.389611,972.306069,15,0,stopped,,,,
2026-06-18 23:43:37.725,50,0.037998,0.166959,9.768291,334.701723,,,,,,,-0.000136,0.000244,0.000074,8.683090,20.424201,4.386452,972.306008,15,0,stopped,,,,
2026-06-18 23:43:37.775,50,0.037987,0.166986,9.768277,334.701723,,,,,,,-0.000136,0.000244,0.000074,8.682942,20.421563,4.383297,972.305947,15,0,stopped,,,,
2026-06-18 23:43:37.825,50,0.037975,0.167013,9.768263,334.701723,,,,,,,-0.000136,0.000244,0.000074,8.682793,20.418929,4.380148,972.305886,15,0,stopped,,,,
2026-06-18 23:43:37.875,50,0.037964,0.167040,9.768250,334.701723,,,,,,,-0.000136,0.000244,0.000074,8.682645,20.416299,4.377005,972.305826,15,0,stopped,,,,
2026-06-18 23:43:37.925,50,0.037953,0.167068,9.768236,334.701723,,,,,,,-0.000136,0.000244,0.000074,8.682496,20.413674,4.373866,972.305765,15,0,stopped,,,,
2026-06-18 23:43:37.975,50,0.037942,0.167095,9.768222,334.701723,,,,,,,-0.000136,0.000244,0.000074,8.682348,20.411054,4.370733,972.305704,15,0,stopped,,,,
2026-06-18 23:43:38.025,50,0.037931,0.167122,9.768208,334.701723,,,,,,,-0.000136,0.000244,0.000074,8.682200,20.408438,4.367606,972.305644,15,0,stopped,,,,
2026-06-18 23:43:38.075,50,0.037920,0.167149,9.768195,334.701723,,,,,,,-0.000136,0.000244,0.000074,8.682051,20.405826,4.364484,972.305584,15,0,stopped,,,,
2026-06-18 23:43:38.125,50,0.037909,0.167176,9.768181,334.701723,,,,,,,-0.000136,0.000244,0.000074,8.681903,20.403219,4.361368,972.305523,15,0,stopped,,,,
2026-06-18 23:43:38.175,50,0.037898,0.167204,9.768167,334.701723,,,,,,,-0.000136,0.000244,0.000074,8.681755,20.400617,4.358257,972.305463,15,0,stopped,,,,
2026-06-18 23:43:38.225,50,0.037887,0.167231,9.768153,334.701723,,,,,,,-0.000136,0.000244,0.000074,8.681607,20.398020,4.355151,972.305403,15,0,stopped,,,,
2026-06-18 23:43:38.275,50,0.037876,0.167258,9.768140,334.701723,,,,,,,-0.000136,0.000244,0.000074,8.681459,20.395427,4.352051,972.305343,15,0,stopped,,,,
2026-06-18 23:43:38.325,50,0.037865,0.167285,9.768126,334.701723,,,,,,,-0.000136,0.000244,0.000074,8.681311,20.392838,4.348957,972.305283,15,0,stopped,,,,
2026-06-18 23:43:38.375,50,0.037854,0.167312,9.768112,334.701723,,,,,,,-0.000136,0.000244,0.000074,8.681163,20.390255,4.345868,972.305224,15,0,stopped,,,,
2026-06-18 23:43:38.425,50,0.037843,0.167339,9.768099,334.701723,,,,,,,-0.000136,0.000244,0.000074,8.681015,20.387676,4.342785,972.305164,15,0,stopped,,,,
2026-06-18 23:43:38.475,50,0.037832,0.167366,9.768085,334.701723,,,,,,,-0.000136,0.000244,0.000074,8.680867,20.385102,4.339707,972.305105,15,0,stopped,,,,
2026-06-18 23:43:38.525,50,0.037821,0.167393,9.768071,334.701723,,,,,,,-0.000136,0.000244,0.000074,8.680719,20.382532,4.336635,972.305045,15,0,stopped,,,,
2026-06-18 23:43:38.575,50,0.037810,0.167420,9.768058,334.701723,,,,,,,-0.000136,0.000244,0.000074,8.680572,20.379967,4.333569,972.304986,15,0,stopped,,,,
2026-06-18 23:43:38.625,50,0.037799,0.167448,9.768044,334.701723,,,,,,,-0.000136,0.000244,0.000074,8.680424,20.377407,4.330508,972.304927,15,0,stopped,,,,
2026-06-18 23:43:38.675,50,0.037788,0.167475,9.768030,334.701723,,,,,,,-0.000136,0.000244,0.000074,8.680276,20.374852,4.327453,972.304868,15,0,stopped,,,,
2026-06-18 23:43:38.725,50,0.037777,0.167502,9.768017,334.701723,,,,,,,-0.000136,0.000244,0.000074,8.680129,20.372302,4.324404,972.304809,15,0,stopped,,,,
2026-06-18 23:43:38.775,50,0.037766,0.167529,9.768003,334.701723,,,,,,,-0.000136,0.000244,0.000074,8.679981,20.369756,4.321361,972.304750,15,0,stopped,,,,
2026-06-18 23:43:38.825,50,0.037756,0.167556,9.767989,334.701723,,,,,,,-0.000136,0.000244,0.000074,8.679834,20.367215,4.318323,972.304691,15,0,stopped,,,,
2026-06-18 23:43:38.875,50,0.037745,0.167583,9.767976,334.701723,,,,,,,-0.000136,0.000244,0.000074,8.679687,20.364679,4.315291,972.304633,15,0,stopped,,,,
2026-06-18 23:43:38.925,50,0.037734,0.167610,9.767962,334.701723,,,,,,,-0.000136,0.000244,0.000074,8.679539,20.362148,4.312265,972.304574,15,0,stopped,,,,
2026-06-18 23:43:38.975,50,0.037723,0.167637,9.767948,334.701723,,,,,,,-0.000136,0.000244,0.000074,8.679392,20.359622,4.309245,972.304516,15,0,stopped,,,,
2026-06-18 23:43:39.025,50,0.037713,0.167664,9.767935,334.701723,,,,,,,-0.000136,0.000244,0.000074,8.679245,20.357100,4.306231,972.304457,15,0,stopped,,,,
2026-06-18 23:43:39.075,50,0.037702,0.167691,9.767921,334.701723,,,,,,,-0.000136,0.000244,0.000074,8.679098,20.354584,4.303222,972.304399,15,0,stopped,,,,
2026-06-18 23:43:39.125,50,0.037691,0.167718,9.767907,334.701723,,,,,,,-0.000136,0.000244,0.000074,8.678951,20.352073,4.300220,972.304341,15,0,stopped,,,,
2026-06-18 23:43:39.175,50,0.037681,0.167745,9.767894,334.701723,,,,,,,-0.000136,0.000244,0.000074,8.678804,20.349566,4.297223,972.304283,15,0,stopped,,,,
2026-06-18 23:43:39.225,50,0.037670,0.167772,9.767880,334.701723,,,,,,,-0.000136,0.000244,0.000074,8.678657,20.347064,4.294232,972.304225,15,0,stopped,,,,
2026-06-18 23:43:39.275,50,0.037659,0.167798,9.767867,334.701723,,,,,,,-0.000136,0.000244,0.000074,8.678510,20.344568,4.291248,972.304168,15,0,stopped,,,,
2026-06-18 23:43:39.325,50,0.037649,0.167825,9.767853,334.701723,,,,,,,-0.000136,0.000244,0.000074,8.678363,20.342076,4.288269,972.304110,15,0,stopped,,,,
2026-06-18 23:43:39.375,50,0.037638,0.167852,9.767839,334.701723,,,,,,,-0.000136,0.000244,0.000074,8.678217,20.339590,4.285296,972.304053,15,0,stopped,,,,
2026-06-18 23:43:39.425,50,0.037628,0.167879,9.767826,334.701723,,,,,,,-0.000136,0.000244,0.000074,8.678070,20.337108,4.282329,972.303995,15,0,stopped,,,,
2026-06-18 23:43:39.475,50,0.037617,0.167906,9.767812,334.701723,,,,,,,-0.000136,0.000244,0.000074,8.677923,20.334632,4.279369,972.303938,15,0,stopped,,,,
2026-06-18 23:43:39.525,50,0.037607,0.167933,9.767799,334.701723,,,,,,,-0.000136,0.000244,0.000074,8.677777,20.332160,4.276414,972.303881,15,0,stopped,,,,
2026-06-18 23:43:39.575,50,0.037596,0.167960,9.767785,334.701723,,,,,,,-0.000136,0.000244,0.000074,8.677630,20.329694,4.273465,972.303824,15,0,stopped,,,,
2026-06-18 23:43:39.625,50,0.037586,0.167987,9.767772,334.701723,,,,,,,-0.000136,0.000244,0.000074,8.677484,20.327233,4.270523,972.303767,15,0,stopped,,,,
2026-06-18 23:43:39.675,50,0.037575,0.168013,9.767758,334.701723,,,,,,,-0.000136,0.000244,0.000074,8.677338,20.324776,4.267586,972.303710,15,0,stopped,,,,
2026-06-18 23:43:39.725,50,0.037565,0.168040,9.767745,334.701723,,,,,,,-0.000136,0.000244,0.000074,8.677191,20.322325,4.264656,972.303653,15,0,stopped,,,,
2026-06-18 23:43:39.775,50,0.037555,0.168067,9.767731,334.701723,,,,,,,-0.000136,0.000244,0.000074,8.677045,20.319880,4.261732,972.303597,15,0,stopped,,,,
2026-06-18 23:43:39.825,50,0.037544,0.168094,9.767717,334.701723,,,,,,,-0.000136,0.000244,0.000074,8.676899,20.317439,4.258814,972.303540,15,0,stopped,,,,
2026-06-18 23:43:39.875,50,0.037534,0.168121,9.767704,334.701723,,,,,,,-0.000136,0.000244,0.000074,8.676753,20.315004,4.255903,972.303484,15,0,stopped,,,,
2026-06-18 23:43:39.925,50,0.037524,0.168147,9.767690,334.701723,,,,,,,-0.000136,0.000244,0.000074,8.676607,20.312573,4.252997,972.303428,15,0,stopped,,,,
2026-06-18 23:43:39.975,50,0.037513,0.168174,9.767677,334.701723,,,,,,,-0.000136,0.000244,0.000074,8.676461,20.310148,4.250098,972.303372,15,0,stopped,,,,
2026-06-18 23:43:40.025,50,0.037503,0.168201,9.767663,334.701723,,,,,,,-0.000136,0.000244,0.000074,8.676316,20.307729,4.247205,972.303316,15,0,stopped,,,,
2026-06-18 23:43:40.075,50,0.037493,0.168228,9.767650,334.701723,,,,,,,-0.000136,0.000244,0.000074,8.676170,20.305314,4.244319,972.303260,15,0,stopped,,,,
2026-06-18 23:43:40.125,50,0.037482,0.168254,9.767636,334.701723,,,,,,,-0.000136,0.000244,0.000074,8.676024,20.302905,4.241438,972.303204,15,0,stopped,,,,
2026-06-18 23:43:40.175,50,0.037472,0.168281,9.767623,334.701723,,,,,,,-0.000136,0.000244,0.000074,8.675879,20.300501,4.238564,972.303149,15,0,stopped,,,,
2026-06-18 23:43:40.225,50,0.037462,0.168308,9.767610,334.701723,,,,,,,-0.000136,0.000244,0.000074,8.675733,20.298102,4.235697,972.303093,15,0,stopped,,,,
2026-06-18 23:43:40.275,50,0.037452,0.168334,9.767596,334.701723,,,,,,,-0.000136,0.000244,0.000074,8.675588,20.295709,4.232836,972.303038,15,0,stopped,,,,
2026-06-18 23:43:40.325,50,0.037442,0.168361,9.767583,334.701723,,,,,,,-0.000136,0.000244,0.000074,8.675442,20.293321,4.229981,972.302983,15,0,stopped,,,,
2026-06-18 23:43:40.375,50,0.037432,0.168388,9.767569,334.701723,,,,,,,-0.000136,0.000244,0.000074,8.675297,20.290939,4.227132,972.302928,15,0,stopped,,,,
2026-06-18 23:43:40.425,50,0.037421,0.168414,9.767556,334.701723,,,,,,,-0.000136,0.000244,0.000074,8.675152,20.288562,4.224291,972.302873,15,0,stopped,,,,
2026-06-18 23:43:40.475,50,0.037411,0.168441,9.767542,334.701723,,,,,,,-0.000136,0.000244,0.000074,8.675007,20.286190,4.221455,972.302818,15,0,stopped,,,,
2026-06-18 23:43:40.525,50,0.037401,0.168467,9.767529,334.701723,,,,,,,-0.000136,0.000244,0.000074,8.674862,20.283824,4.218626,972.302763,15,0,stopped,,,,
2026-06-18 23:43:40.575,50,0.037391,0.168494,9.767515,334.701723,,,,,,,-0.000136,0.000244,0.000074,8.674717,20.281463,4.215804,972.302709,15,0,stopped,,,,
2026-06-18 23:43:40.625,50,0.037381,0.168521,9.767502,334.701723,,,,,,,-0.000136,0.000244,0.000074,8.674572,20.279107,4.212988,972.302654,15,0,stopped,,,,
2026-06-18 23:43:40.675,50,0.037371,0.168547,9.767489,334.701723,,,,,,,-0.000136,0.000244,0.000074,8.674427,20.276757,4.210178,972.302600,15,0,stopped,,,,
2026-06-18 23:43:40.725,50,0.037361,0.168574,9.767475,334.701723,,,,,,,-0.000136,0.000244,0.000074,8.674282,20.274413,4.207375,972.302546,15,0,stopped,,,,
2026-06-18 23:43:40.775,50,0.037351,0.168600,9.767462,334.701723,,,,,,,-0.000136,0.000244,0.000074,8.674137,20.272074,4.204579,972.302492,15,0,stopped,,,,
2026-06-18 23:43:40.825,50,0.037342,0.168627,9.767448,334.701723,,,,,,,-0.000136,0.000244,0.000074,8.673993,20.269741,4.201789,972.302438,15,0,stopped,,,,
2026-06-18 23:43:40.875,50,0.037332,0.168653,9.767435,334.701723,,,,,,,-0.000136,0.000244,0.000074,8.673848,20.267413,4.199006,972.302384,15,0,stopped,,,,
2026-06-18 23:43:40.925,50,0.037322,0.168680,9.767422,334.701723,,,,,,,-0.000136,0.000244,0.000074,8.673704,20.265090,4.196230,972.302330,15,0,stopped,,,,
2026-06-18 23:43:40.975,50,0.037312,0.168706,9.767408,334.701723,,,,,,,-0.000136,0.000244,0.000074,8.673560,20.262774,4.193460,972.302277,15,0,stopped,,,,
2026-06-18 23:43:41.025,50,0.037302,0.168733,9.767395,334.701723,,,,,,,-0.000136,0.000244,0.000074,8.673415,20.260462,4.190697,972.302223,15,0,stopped,,,,
2026-06-18 23:43:41.075,50,0.037292,0.168759,9.767382,334.701723,,,,,,,-0.000136,0.000244,0.000074,8.673271,20.258157,4.187941,972.302170,15,0,stopped,,,,
2026-06-18 23:43:41.125,50,0.037283,0.168785,9.767368,334.701723,,,,,,,-0.000136,0.000244,0.000074,8.673127,20.255857,4.185191,972.302117,15,0,stopped,,,,
2026-06-18 23:43:41.175,50,0.037273,0.168812,9.767355,334.701723,,,,,,,-0.000136,0.000244,0.000074,8.672983,20.253563,4.182448,972.302064,15,0,stopped,,,,
2026-06-18 23:43:41.225,50,0.037263,0.168838,9.767342,334.701723,,,,,,,-0.000136,0.000244,0.000074,8.672839,20.251274,4.179712,972.302011,15,0,stopped,,,,
2026-06-18 23:43:41.275,50,0.037253,0.168865,9.767328,334.701723,,,,,,,-0.000136,0.000244,0.000074,8.672695,20.248991,4.176983,972.301958,15,0,stopped,,,,
2026-06-18 23:43:41.325,50,0.037244,0.168891,9.767315,334.701723,,,,,,,-0.000136,0.000244,0.000074,8.672552,20.246714,4.174261,972.301905,15,0,stopped,,,,
2026-06-18 23:43:41.375,50,0.037234,0.168917,9.767302,334.701723,,,,,,,-0.000136,0.000244,0.000074,8.672408,20.244443,4.171545,972.301853,15,0,stopped,,,,
2026-06-18 23:43:41.425,50,0.037224,0.168944,9.767288,334.701723,,,,,,,-0.000136,0.000244,0.000074,8.672264,20.242177,4.168836,972.301800,15,0,stopped,,,,
2026-06-18 23:43:41.475,50,0.037215,0.168970,9.767275,334.701723,,,,,,,-0.000136,0.000244,0.000074,8.672121,20.239917,4.166134,972.301748,15,0,stopped,,,,
2026-06-18 23:43:41.525,50,0.037205,0.168996,9.767262,334.701723,,,,,,,-0.000136,0.000244,0.000074,8.671977,20.237663,4.163439,972.301696,15,0,stopped,,,,
2026-06-18 23:43:41.575,50,0.037196,0.169023,9.767248,334.701723,,,,,,,-0.000136,0.000244,0.000074,8.671834,20.235414,4.160751,972.301644,15,0,stopped,,,,
2026-06-18 23:43:41.625,50,0.037186,0.169049,9.767235,334.701723,,,,,,,-0.000136,0.000244,0.000074,8.671691,20.233172,4.158070,972.301592,15,0,stopped,,,,
2026-06-18 23:43:41.675,50,0.037177,0.169075,9.767222,334.701723,,,,,,,-0.000136,0.000244,0.000074,8.671548,20.230935,4.155396,972.301540,15,0,stopped,,,,
2026-06-18 23:43:41.725,50,0.037167,0.169101,9.767209,334.701723,,,,,,,-0.000136,0.000244,0.000074,8.671405,20.228704,4.152729,972.301489,15,0,stopped,,,,
2026-06-18 23:43:41.775,50,0.037158,0.169127,9.767195,334.701723,,,,,,,-0.000136,0.000244,0.000074,8.671262,20.226479,4.150069,972.301437,15,0,stopped,,,,
2026-06-18 23:43:41.825,50,0.037148,0.169154,9.767182,334.701723,,,,,,,-0.000136,0.000244,0.000074,8.671119,20.224260,4.147416,972.301386,15,0,stopped,,,,
2026-06-18 23:43:41.875,50,0.037139,0.169180,9.767169,334.701723,,,,,,,-0.000136,0.000244,0.000074,8.670976,20.222046,4.144769,972.301335,15,0,stopped,,,,
2026-06-18 23:43:41.925,50,0.037130,0.169206,9.767156,334.701723,,,,,,,-0.000136,0.000244,0.000074,8.670833,20.219839,4.142130,972.301284,15,0,stopped,,,,
2026-06-18 23:43:41.975,50,0.037120,0.169232,9.767143,334.701723,,,,,,,-0.000136,0.000244,0.000074,8.670691,20.217637,4.139499,972.301233,15,0,stopped,,,,
2026-06-18 23:43:42.025,50,0.037111,0.169258,9.767129,334.701723,,,,,,,-0.000136,0.000244,0.000074,8.670548,20.215442,4.136874,972.301182,15,0,stopped,,,,
2026-06-18 23:43:42.075,50,0.037102,0.169284,9.767116,334.701723,,,,,,,-0.000136,0.000244,0.000074,8.670406,20.213252,4.134256,972.301131,15,0,stopped,,,,
2026-06-18 23:43:42.125,50,0.037092,0.169310,9.767103,334.701723,,,,,,,-0.000136,0.000244,0.000074,8.670264,20.211069,4.131646,972.301081,15,0,stopped,,,,
2026-06-18 23:43:42.175,50,0.037083,0.169337,9.767090,334.701723,,,,,,,-0.000136,0.000244,0.000074,8.670121,20.208891,4.129042,972.301030,15,0,stopped,,,,
2026-06-18 23:43:42.225,50,0.037074,0.169363,9.767077,334.701723,,,,,,,-0.000136,0.000244,0.000074,8.669979,20.206720,4.126446,972.300980,15,0,stopped,,,,
2026-06-18 23:43:42.275,50,0.037065,0.169389,9.767064,334.701723,,,,,,,-0.000136,0.000244,0.000074,8.669837,20.204554,4.123857,972.300930,15,0,stopped,,,,
2026-06-18 23:43:42.325,50,0.037055,0.169415,9.767050,334.701723,,,,,,,-0.000136,0.000244,0.000074,8.669695,20.202395,4.121275,972.300880,15,0,stopped,,,,
2026-06-18 23:43:42.375,50,0.037046,0.169441,9.767037,334.701723,,,,,,,-0.000136,0.000244,0.000074,8.669553,20.200241,4.118701,972.300830,15,0,stopped,,,,
2026-06-18 23:43:42.425,50,0.037037,0.169467,9.767024,334.701723,,,,,,,-0.000136,0.000244,0.000074,8.669412,20.198094,4.116134,972.300781,15,0,stopped,,,,
2026-06-18 23:43:42.475,50,0.037028,0.169493,9.767011,334.701723,,,,,,,-0.000136,0.000244,0.000074,8.669270,20.195953,4.113574,972.300731,15,0,stopped,,,,
2026-06-18 23:43:42.525,50,0.037019,0.169519,9.766998,334.701723,,,,,,,-0.000136,0.000244,0.000074,8.669129,20.193818,4.111021,972.300682,15,0,stopped,,,,
2026-06-18 23:43:42.575,50,0.037010,0.169545,9.766985,334.701723,,,,,,,-0.000136,0.000244,0.000074,8.668987,20.191689,4.108476,972.300633,15,0,stopped,,,,
2026-06-18 23:43:42.625,50,0.037001,0.169570,9.766972,334.701723,,,,,,,-0.000136,0.000244,0.000074,8.668846,20.189566,4.105938,972.300583,15,0,stopped,,,,
2026-06-18 23:43:42.675,50,0.036992,0.169596,9.766959,334.701723,,,,,,,-0.000136,0.000244,0.000074,8.668704,20.187449,4.103408,972.300535,15,0,stopped,,,,
2026-06-18 23:43:42.725,50,0.036983,0.169622,9.766946,334.701723,,,,,,,-0.000136,0.000244,0.000074,8.668563,20.185339,4.100885,972.300486,15,0,stopped,,,,
2026-06-18 23:43:42.775,50,0.036974,0.169648,9.766932,334.701723,,,,,,,-0.000136,0.000244,0.000074,8.668422,20.183235,4.098369,972.300437,15,0,stopped,,,,
2026-06-18 23:43:42.825,50,0.036965,0.169674,9.766919,334.701723,,,,,,,-0.000136,0.000244,0.000074,8.668281,20.181137,4.095861,972.300389,15,0,stopped,,,,
2026-06-18 23:43:42.875,50,0.036956,0.169700,9.766906,334.701723,,,,,,,-0.000136,0.000244,0.000074,8.668140,20.179045,4.093360,972.300340,15,0,stopped,,,,
2026-06-18 23:43:42.925,50,0.036947,0.169726,9.766893,334.701723,,,,,,,-0.000136,0.000244,0.000074,8.668000,20.176960,4.090867,972.300292,15,0,stopped,,,,
2026-06-18 23:43:42.975,50,0.036939,0.169751,9.766880,334.701723,,,,,,,-0.000136,0.000244,0.000074,8.667859,20.174880,4.088381,972.300244,15,0,stopped,,,,
2026-06-18 23:43:43.025,50,0.036930,0.169777,9.766867,334.701723,,,,,,,-0.000136,0.000244,0.000074,8.667718,20.172807,4.085903,972.300196,15,0,stopped,,,,
2026-06-18 23:43:43.075,50,0.036921,0.169803,9.766854,334.701723,,,,,,,-0.000136,0.000244,0.000074,8.667578,20.170741,4.083432,972.300148,15,0,stopped,,,,
2026-06-18 23:43:43.125,50,0.036912,0.169829,9.766841,334.701723,,,,,,,-0.000136,0.000244,0.000074,8.667438,20.168681,4.080969,972.300100,15,0,stopped,,,,
2026-06-18 23:43:43.175,50,0.036903,0.169854,9.766828,334.701723,,,,,,,-0.000136,0.000244,0.000074,8.667297,20.166627,4.078514,972.300053,15,0,stopped,,,,
2026-06-18 23:43:43.225,50,0.036895,0.169880,9.766815,334.701723,,,,,,,-0.000136,0.000244,0.000074,8.667157,20.164579,4.076066,972.300005,15,0,stopped,,,,
2026-06-18 23:43:43.275,50,0.036886,0.169906,9.766802,334.701723,,,,,,,-0.000136,0.000244,0.000074,8.667017,20.162538,4.073625,972.299958,15,0,stopped,,,,
2026-06-18 23:43:43.325,50,0.036877,0.169931,9.766789,334.701723,,,,,,,-0.000136,0.000244,0.000074,8.666877,20.160503,4.071193,972.299911,15,0,stopped,,,,
2026-06-18 23:43:43.375,50,0.036869,0.169957,9.766776,334.701723,,,,,,,-0.000136,0.000244,0.000074,8.666737,20.158475,4.068768,972.299864,15,0,stopped,,,,
2026-06-18 23:43:43.425,50,0.036860,0.169983,9.766764,334.701723,,,,,,,-0.000136,0.000244,0.000074,8.666598,20.156453,4.066351,972.299817,15,0,stopped,,,,
2026-06-18 23:43:43.475,50,0.036852,0.170008,9.766751,334.701723,,,,,,,-0.000136,0.000244,0.000074,8.666458,20.154438,4.063941,972.299771,15,0,stopped,,,,
2026-06-18 23:43:43.525,50,0.036843,0.170034,9.766738,334.701723,,,,,,,-0.000136,0.000244,0.000074,8.666319,20.152429,4.061539,972.299724,15,0,stopped,,,,
2026-06-18 23:43:43.575,50,0.036835,0.170059,9.766725,334.701723,,,,,,,-0.000136,0.000244,0.000074,8.666179,20.150426,4.059145,972.299678,15,0,stopped,,,,
2026-06-18 23:43:43.625,50,0.036826,0.170085,9.766712,334.701723,,,,,,,-0.000136,0.000244,0.000074,8.666040,20.148430,4.056759,972.299632,15,0,stopped,,,,
2026-06-18 23:43:43.675,50,0.036818,0.170110,9.766699,334.701723,,,,,,,-0.000136,0.000244,0.000074,8.665901,20.146441,4.054381,972.299586,15,0,stopped,,,,
2026-06-18 23:43:43.725,50,0.036809,0.170136,9.766686,334.701723,,,,,,,-0.000136,0.000244,0.000074,8.665762,20.144458,4.052010,972.299540,15,0,stopped,,,,
2026-06-18 23:43:43.775,50,0.036801,0.170161,9.766673,334.701723,,,,,,,-0.000136,0.000244,0.000074,8.665623,20.142482,4.049647,972.299494,15,0,stopped,,,,
2026-06-18 23:43:43.825,50,0.036792,0.170187,9.766660,334.701723,,,,,,,-0.000136,0.000244,0.000074,8.665484,20.140512,4.047292,972.299449,15,0,stopped,,,,
2026-06-18 23:43:43.875,50,0.036784,0.170212,9.766648,334.701723,,,,,,,-0.000136,0.000244,0.000074,8.665345,20.138549,4.044945,972.299403,15,0,stopped,,,,
2026-06-18 23:43:43.925,50,0.036776,0.170238,9.766635,334.701723,,,,,,,-0.000136,0.000244,0.000074,8.665206,20.136592,4.042606,972.299358,15,0,stopped,,,,
2026-06-18 23:43:43.975,50,0.036768,0.170263,9.766622,334.701723,,,,,,,-0.000136,0.000244,0.000074,8.665068,20.134642,4.040275,972.299313,15,0,stopped,,,,
2026-06-18 23:43:44.025,50,0.036759,0.170289,9.766609,334.701723,,,,,,,-0.000136,0.000244,0.000074,8.664929,20.132699,4.037952,972.299268,15,0,stopped,,,,
2026-06-18 23:43:44.075,50,0.036751,0.170314,9.766596,334.701723,,,,,,,-0.000136,0.000244,0.000074,8.664791,20.130762,4.035637,972.299223,15,0,stopped,,,,
2026-06-18 23:43:44.125,50,0.036743,0.170339,9.766583,334.701723,,,,,,,-0.000136,0.000244,0.000074,8.664653,20.128832,4.033329,972.299178,15,0,stopped,,,,
2026-06-18 23:43:44.175,50,0.036735,0.170365,9.766571,334.701723,,,,,,,-0.000136,0.000244,0.000074,8.664515,20.126909,4.031030,972.299134,15,0,stopped,,,,
2026-06-18 23:43:44.225,50,0.036727,0.170390,9.766558,334.701723,,,,,,,-0.000136,0.000244,0.000074,8.664377,20.124993,4.028739,972.299090,15,0,stopped,,,,
2026-06-18 23:43:44.275,50,0.036718,0.170415,9.766545,334.701723,,,,,,,-0.000136,0.000244,0.000074,8.664239,20.123083,4.026456,972.299045,15,0,stopped,,,,
2026-06-18 23:43:44.325,50,0.036710,0.170440,9.766532,334.701723,,,,,,,-0.000136,0.000244,0.000074,8.664101,20.121180,4.024181,972.299001,15,0,stopped,,,,
2026-06-18 23:43:44.375,50,0.036702,0.170466,9.766520,334.701723,,,,,,,-0.000136,0.000244,0.000074,8.663964,20.119284,4.021914,972.298957,15,0,stopped,,,,
2026-06-18 23:43:44.425,50,0.036694,0.170491,9.766507,334.701723,,,,,,,-0.000136,0.000244,0.000074,8.663826,20.117394,4.019655,972.298914,15,0,stopped,,,,
2026-06-18 23:43:44.475,50,0.036686,0.170516,9.766494,334.701723,,,,,,,-0.000136,0.000244,0.000074,8.663689,20.115512,4.017404,972.298870,15,0,stopped,,,,
2026-06-18 23:43:44.525,50,0.036678,0.170541,9.766481,334.701723,,,,,,,-0.000136,0.000244,0.000074,8.663551,20.113636,4.015161,972.298827,15,0,stopped,,,,
2026-06-18 23:43:44.575,50,0.036670,0.170566,9.766469,334.701723,,,,,,,-0.000136,0.000244,0.000074,8.663414,20.111767,4.012927,972.298784,15,0,stopped,,,,
2026-06-18 23:43:44.625,50,0.036662,0.170591,9.766456,334.701723,,,,,,,-0.000136,0.000244,0.000074,8.663277,20.109905,4.010701,972.298740,15,0,stopped,,,,
2026-06-18 23:43:44.675,50,0.036655,0.170617,9.766443,334.701723,,,,,,,-0.000136,0.000244,0.000074,8.663140,20.108049,4.008483,972.298697,15,0,stopped,,,,
2026-06-18 23:43:44.725,50,0.036647,0.170642,9.766431,334.701723,,,,,,,-0.000136,0.000244,0.000074,8.663004,20.106201,4.006273,972.298655,15,0,stopped,,,,
2026-06-18 23:43:44.775,50,0.036639,0.170667,9.766418,334.701723,,,,,,,-0.000136,0.000244,0.000074,8.662867,20.104360,4.004071,972.298612,15,0,stopped,,,,
2026-06-18 23:43:44.825,50,0.036631,0.170692,9.766405,334.701723,,,,,,,-0.000136,0.000244,0.000074,8.662730,20.102525,4.001878,972.298570,15,0,stopped,,,,
2026-06-18 23:43:44.875,50,0.036623,0.170717,9.766393,334.701723,,,,,,,-0.000136,0.000244,0.000074,8.662594,20.100698,3.999693,972.298527,15,0,stopped,,,,
2026-06-18 23:43:44.925,50,0.036616,0.170742,9.766380,334.701723,,,,,,,-0.000136,0.000244,0.000074,8.662458,20.098877,3.997517,972.298485,15,0,stopped,,,,
2026-06-18 23:43:44.975,50,0.036608,0.170767,9.766368,334.701723,,,,,,,-0.000136,0.000244,0.000074,8.662321,20.097063,3.995348,972.298443,15,0,stopped,,,,
2026-06-18 23:43:45.025,50,0.036600,0.170792,9.766355,334.701723,,,,,,,-0.000136,0.000244,0.000074,8.662185,20.095257,3.993189,972.298401,15,0,stopped,,,,
2026-06-18 23:43:45.075,50,0.036593,0.170817,9.766342,334.701723,,,,,,,-0.000136,0.000244,0.000074,8.662049,20.093457,3.991037,972.298360,15,0,stopped,,,,
2026-06-18 23:43:45.125,50,0.036585,0.170842,9.766330,334.701723,,,,,,,-0.000136,0.000244,0.000074,8.661913,20.091665,3.988894,972.298318,15,0,stopped,,,,
2026-06-18 23:43:45.175,50,0.036577,0.170866,9.766317,334.701723,,,,,,,-0.000136,0.000244,0.000074,8.661778,20.089879,3.986759,972.298277,15,0,stopped,,,,
2026-06-18 23:43:45.225,50,0.036570,0.170891,9.766305,334.701723,,,,,,,-0.000136,0.000244,0.000074,8.661642,20.088101,3.984633,972.298236,15,0,stopped,,,,
2026-06-18 23:43:45.275,50,0.036562,0.170916,9.766292,334.701723,,,,,,,-0.000136,0.000244,0.000074,8.661507,20.086329,3.982515,972.298195,15,0,stopped,,,,
2026-06-18 23:43:45.325,50,0.036555,0.170941,9.766280,334.701723,,,,,,,-0.000136,0.000244,0.000074,8.661371,20.084565,3.980406,972.298154,15,0,stopped,,,,
2026-06-18 23:43:45.375,50,0.036547,0.170966,9.766267,334.701723,,,,,,,-0.000136,0.000244,0.000074,8.661236,20.082808,3.978305,972.298113,15,0,stopped,,,,
2026-06-18 23:43:45.425,50,0.036540,0.170991,9.766255,334.701723,,,,,,,-0.000136,0.000244,0.000074,8.661101,20.081058,3.976213,972.298073,15,0,stopped,,,,
2026-06-18 23:43:45.475,50,0.036532,0.171015,9.766242,334.701723,,,,,,,-0.000136,0.000244,0.000074,8.660966,20.079315,3.974130,972.298032,15,0,stopped,,,,
2026-06-18 23:43:45.525,50,0.036525,0.171040,9.766230,334.701723,,,,,,,-0.000136,0.000244,0.000074,8.660831,20.077579,3.972055,972.297992,15,0,stopped,,,,
2026-06-18 23:43:45.575,50,0.036518,0.171065,9.766217,334.701723,,,,,,,-0.000136,0.000244,0.000074,8.660697,20.075851,3.969988,972.297952,15,0,stopped,,,,
2026-06-18 23:43:45.625,50,0.036510,0.171089,9.766205,334.701723,,,,,,,-0.000136,0.000244,0.000074,8.660562,20.074130,3.967930,972.297912,15,0,stopped,,,,
2026-06-18 23:43:45.675,50,0.036503,0.171114,9.766192,334.701723,,,,,,,-0.000136,0.000244,0.000074,8.660428,20.072415,3.965881,972.297873,15,0,stopped,,,,
2026-06-18 23:43:45.725,50,0.036496,0.171139,9.766180,334.701723,,,,,,,-0.000136,0.000244,0.000074,8.660293,20.070709,3.963841,972.297833,15,0,stopped,,,,
2026-06-18 23:43:45.775,50,0.036489,0.171163,9.766167,334.701723,,,,,,,-0.000136,0.000244,0.000074,8.660159,20.069009,3.961809,972.297794,15,0,stopped,,,,
2026-06-18 23:43:45.825,50,0.036482,0.171188,9.766155,334.701723,,,,,,,-0.000136,0.000244,0.000074,8.660025,20.067317,3.959786,972.297755,15,0,stopped,,,,
2026-06-18 23:43:45.875,50,0.036474,0.171212,9.766142,334.701723,,,,,,,-0.000136,0.000244,0.000074,8.659891,20.065632,3.957771,972.297716,15,0,stopped,,,,
2026-06-18 23:43:45.925,50,0.036467,0.171237,9.766130,334.701723,,,,,,,-0.000136,0.000244,0.000074,8.659757,20.063954,3.955765,972.297677,15,0,stopped,,,,
2026-06-18 23:43:45.975,50,0.036460,0.171261,9.766118,334.701723,,,,,,,-0.000136,0.000244,0.000074,8.659623,20.062284,3.953769,972.297638,15,0,stopped,,,,
2026-06-18 23:43:46.025,50,0.036453,0.171286,9.766105,334.701723,,,,,,,-0.000136,0.000244,0.000074,8.659490,20.060621,3.951780,972.297600,15,0,stopped,,,,
2026-06-18 23:43:46.075,50,0.036446,0.171310,9.766093,334.701723,,,,,,,-0.000136,0.000244,0.000074,8.659357,20.058965,3.949801,972.297561,15,0,stopped,,,,
2026-06-18 23:43:46.125,50,0.036439,0.171335,9.766081,334.701723,,,,,,,-0.000136,0.000244,0.000074,8.659223,20.057317,3.947831,972.297523,15,0,stopped,,,,
2026-06-18 23:43:46.175,50,0.036432,0.171359,9.766068,334.701723,,,,,,,-0.000136,0.000244,0.000074,8.659090,20.055676,3.945869,972.297485,15,0,stopped,,,,
2026-06-18 23:43:46.225,50,0.036425,0.171384,9.766056,334.701723,,,,,,,-0.000136,0.000244,0.000074,8.658957,20.054043,3.943916,972.297447,15,0,stopped,,,,
2026-06-18 23:43:46.275,50,0.036418,0.171408,9.766044,334.701723,,,,,,,-0.000136,0.000244,0.000074,8.658824,20.052417,3.941972,972.297410,15,0,stopped,,,,
2026-06-18 23:43:46.325,50,0.036411,0.171432,9.766031,334.701723,,,,,,,-0.000136,0.000244,0.000074,8.658691,20.050798,3.940037,972.297372,15,0,stopped,,,,
2026-06-18 23:43:46.375,50,0.036404,0.171457,9.766019,334.701723,,,,,,,-0.000136,0.000244,0.000074,8.658559,20.049187,3.938111,972.297335,15,0,stopped,,,,
2026-06-18 23:43:46.425,50,0.036398,0.171481,9.766007,334.701723,,,,,,,-0.000136,0.000244,0.000074,8.658426,20.047584,3.936194,972.297298,15,0,stopped,,,,
2026-06-18 23:43:46.475,50,0.036391,0.171505,9.765995,334.701723,,,,,,,-0.000136,0.000244,0.000074,8.658294,20.045988,3.934286,972.297261,15,0,stopped,,,,
2026-06-18 23:43:46.525,50,0.036384,0.171529,9.765982,334.701723,,,,,,,-0.000136,0.000244,0.000074,8.658162,20.044399,3.932387,972.297224,15,0,stopped,,,,
2026-06-18 23:43:46.575,50,0.036377,0.171554,9.765970,334.701723,,,,,,,-0.000136,0.000244,0.000074,8.658030,20.042818,3.930497,972.297187,15,0,stopped,,,,
2026-06-18 23:43:46.625,50,0.036371,0.171578,9.765958,334.701723,,,,,,,-0.000136,0.000244,0.000074,8.657898,20.041245,3.928616,972.297151,15,0,stopped,,,,
2026-06-18 23:43:46.675,50,0.036364,0.171602,9.765946,334.701723,,,,,,,-0.000136,0.000244,0.000074,8.657766,20.039679,3.926744,972.297115,15,0,stopped,,,,
2026-06-18 23:43:46.725,50,0.036357,0.171626,9.765933,334.701723,,,,,,,-0.000136,0.000244,0.000074,8.657634,20.038121,3.924881,972.297078,15,0,stopped,,,,
2026-06-18 23:43:46.775,50,0.036351,0.171650,9.765921,334.701723,,,,,,,-0.000136,0.000244,0.000074,8.657503,20.036570,3.923027,972.297043,15,0,stopped,,,,
2026-06-18 23:43:46.825,50,0.036344,0.171674,9.765909,334.701723,,,,,,,-0.000136,0.000244,0.000074,8.657371,20.035027,3.921182,972.297007,15,0,stopped,,,,
2026-06-18 23:43:46.875,50,0.036338,0.171698,9.765897,334.701723,,,,,,,-0.000136,0.000244,0.000074,8.657240,20.033492,3.919347,972.296971,15,0,stopped,,,,
2026-06-18 23:43:46.925,50,0.036331,0.171722,9.765885,334.701723,,,,,,,-0.000136,0.000244,0.000074,8.657109,20.031964,3.917520,972.296936,15,0,stopped,,,,
2026-06-18 23:43:46.975,50,0.036325,0.171746,9.765873,334.701723,,,,,,,-0.000136,0.000244,0.000074,8.656978,20.030444,3.915703,972.296901,15,0,stopped,,,,
2026-06-18 23:43:47.025,50,0.036318,0.171770,9.765861,334.701723,,,,,,,-0.000136,0.000244,0.000074,8.656847,20.028932,3.913895,972.296866,15,0,stopped,,,,
2026-06-18 23:43:47.075,50,0.036312,0.171794,9.765848,334.701723,,,,,,,-0.000136,0.000244,0.000074,8.656717,20.027427,3.912096,972.296831,15,0,stopped,,,,
2026-06-18 23:43:47.125,50,0.036306,0.171818,9.765836,334.701723,,,,,,,-0.000136,0.000244,0.000074,8.656586,20.025930,3.910307,972.296796,15,0,stopped,,,,
2026-06-18 23:43:47.175,50,0.036299,0.171842,9.765824,334.701723,,,,,,,-0.000136,0.000244,0.000074,8.656456,20.024441,3.908526,972.296762,15,0,stopped,,,,
2026-06-18 23:43:47.225,50,0.036293,0.171866,9.765812,334.701723,,,,,,,-0.000136,0.000244,0.000074,8.656326,20.022960,3.906755,972.296727,15,0,stopped,,,,
2026-06-18 23:43:47.275,50,0.036287,0.171890,9.765800,334.701723,,,,,,,-0.000136,0.000244,0.000074,8.656195,20.021486,3.904994,972.296693,15,0,stopped,,,,
2026-06-18 23:43:47.325,50,0.036281,0.171914,9.765788,334.701723,,,,,,,-0.000136,0.000244,0.000074,8.656065,20.020020,3.903241,972.296659,15,0,stopped,,,,
2026-06-18 23:43:47.375,50,0.036274,0.171938,9.765776,334.701723,,,,,,,-0.000136,0.000244,0.000074,8.655936,20.018563,3.901498,972.296625,15,0,stopped,,,,
2026-06-18 23:43:47.425,50,0.036268,0.171961,9.765764,334.701723,,,,,,,-0.000136,0.000244,0.000074,8.655806,20.017112,3.899765,972.296592,15,0,stopped,,,,
2026-06-18 23:43:47.475,50,0.036262,0.171985,9.765752,334.701723,,,,,,,-0.000136,0.000244,0.000074,8.655676,20.015670,3.898040,972.296558,15,0,stopped,,,,
2026-06-18 23:43:47.525,50,0.036256,0.172009,9.765740,334.701723,,,,,,,-0.000136,0.000244,0.000074,8.655547,20.014236,3.896326,972.296525,15,0,stopped,,,,
2026-06-18 23:43:47.575,50,0.036250,0.172033,9.765728,334.701723,,,,,,,-0.000136,0.000244,0.000074,8.655418,20.012809,3.894620,972.296492,15,0,stopped,,,,
2026-06-18 23:43:47.625,50,0.036244,0.172056,9.765716,334.701723,,,,,,,-0.000136,0.000244,0.000074,8.655289,20.011391,3.892924,972.296459,15,0,stopped,,,,
2026-06-18 23:43:47.675,50,0.036238,0.172080,9.765704,334.701723,,,,,,,-0.000136,0.000244,0.000074,8.655160,20.009980,3.891238,972.296427,15,0,stopped,,,,
2026-06-18 23:43:47.725,50,0.036232,0.172104,9.765692,334.701723,,,,,,,-0.000136,0.000244,0.000074,8.655031,20.008578,3.889561,972.296394,15,0,stopped,,,,
2026-06-18 23:43:47.775,50,0.036226,0.172127,9.765680,334.701723,,,,,,,-0.000136,0.000244,0.000074,8.654902,20.007183,3.887893,972.296362,15,0,stopped,,,,
2026-06-18 23:43:47.825,50,0.036220,0.172151,9.765669,334.701723,,,,,,,-0.000136,0.000244,0.000074,8.654774,20.005796,3.886236,972.296330,15,0,stopped,,,,
2026-06-18 23:43:47.875,50,0.036214,0.172174,9.765657,334.701723,,,,,,,-0.000136,0.000244,0.000074,8.654646,20.004417,3.884587,972.296298,15,0,stopped,,,,
2026-06-18 23:43:47.925,50,0.036208,0.172198,9.765645,334.701723,,,,,,,-0.000136,0.000244,0.000074,8.654517,20.003047,3.882949,972.296266,15,0,stopped,,,,
2026-06-18 23:43:47.975,50,0.036203,0.172221,9.765633,334.701723,,,,,,,-0.000136,0.000244,0.000074,8.654389,20.001684,3.881319,972.296234,15,0,stopped,,,,
2026-06-18 23:43:48.025,50,0.036197,0.172245,9.765621,334.701723,,,,,,,-0.000136,0.000244,0.000074,8.654261,20.000329,3.879700,972.296203,15,0,stopped,,,,
2026-06-18 23:43:48.075,50,0.036191,0.172268,9.765609,334.701723,,,,,,,-0.000136,0.000244,0.000074,8.654134,19.998983,3.878090,972.296172,15,0,stopped,,,,
2026-06-18 23:43:48.125,50,0.036186,0.172291,9.765597,334.701723,,,,,,,-0.000136,0.000244,0.000074,8.654006,19.997644,3.876490,972.296141,15,0,stopped,,,,
2026-06-18 23:43:48.175,50,0.036180,0.172315,9.765586,334.701723,,,,,,,-0.000136,0.000244,0.000074,8.653879,19.996314,3.874899,972.296110,15,0,stopped,,,,
2026-06-18 23:43:48.225,50,0.036174,0.172338,9.765574,334.701723,,,,,,,-0.000136,0.000244,0.000074,8.653751,19.994991,3.873318,972.296079,15,0,stopped,,,,
2026-06-18 23:43:48.275,50,0.036169,0.172361,9.765562,334.701723,,,,,,,-0.000136,0.000244,0.000074,8.653624,19.993677,3.871747,972.296049,15,0,stopped,,,,
2026-06-18 23:43:48.325,50,0.036163,0.172385,9.765550,334.701723,,,,,,,-0.000136,0.000244,0.000074,8.653497,19.992371,3.870186,972.296018,15,0,stopped,,,,
2026-06-18 23:43:48.375,50,0.036158,0.172408,9.765539,334.701723,,,,,,,-0.000136,0.000244,0.000074,8.653370,19.991074,3.868634,972.295988,15,0,stopped,,,,
